"ID","V1","V2","V3","V4","V5","V6","V7","V8","V9","V10","consent","subject","subj","Q1","rfq1","rfq2","rfq3","rfq4","rfq5","rfq6","rfq7","rfq8","rfq9","rfq10","rfq11","se1","se2","se3","se4","se5","se6","se7","se8","se9","se10","rmq1","rmq2","rmq3","rmq4","rmq5","rmq6","rmq7","rmq8","rmq9","rmq10","rmq11","rmq12","rmq13","rmq14","rmq15","rmq16","rmq17","rmq18","rmq19","rmq20","rmq21","rmq22","rmq23","rmq24","rmq25","rmq26","rmq27","rmq28","rmq29","rmq30","attchk","Q6","age","gender","gender_TEXT","hispanic","race","race_TEXT","relstat","relstat_TEXT","Q12","Q13","Q17","LocationLatitude","LocationLongitude","LocationAccuracy","rmq2r","rmq10r","rmq27r","rmq13r","rmq24r","loc.matrix.1","loc.matrix.2","loc.matrix.3","loc.matrix.4","loc.matrix.5","loc.matrix.6","loc.matrix.7","loc.matrix.8","loc.matrix.9","loc.matrix.10","loc.matrix.11","loc.matrix.12","loc.v","loc.c","ass.matrix.1","ass.matrix.2","ass.matrix.3","ass.matrix.4","ass.matrix.5","ass.matrix.6","ass.matrix.7","ass.matrix.8","ass.matrix.9","ass.matrix.10","ass.matrix.11","ass.matrix.12","ass.v","ass.c","rmpredom","rmpredomave","rmpredom.c","rmpredomave.c","rfq1r","rfq9r","rfq11r","rfq2r","rfq4r","rfq6r","rfq8r","prom.matrix.1","prom.matrix.2","prom.matrix.3","prom.matrix.4","prom.matrix.5","prom.v","prom.c","prev.matrix.1","prev.matrix.2","prev.matrix.3","prev.matrix.4","prev.matrix.5","prev.v","prev.c","rfpredom","rfpredomave","rfpredom.c","rfpredomave.c","se2r","se5r","se6r","se8r","se9r","se.all.1","se.all.2","se.all.3","se.all.4","se.all.5","se.all.6","se.all.7","se.all.8","se.all.9","se.all.10","se.v","se.c","pracword","valence","word","trials_2.thisRepN","trials_2.thisTrialN","trials_2.thisN","trials_2.thisIndex","trials.thisRepN","trials.thisTrialN","trials.thisN","trials.thisIndex","key_resp_3.keys","key_resp_3.rt","key_resp_4.keys","key_resp_4.rt","response.keys","response.corr","response.rt","date","frameRate","expName","session","participant","trial40","trial40c","rt","logrt","id","valenceE","rtms","rt.z"
201,"R_OD706cR7iwZ5kXf","Default Response Set","Anonymous",NA,NA,"128.59.230.241",0,"9/30/16 10:48","9/30/16 11:28",1,1,201, 91993,1,2,2,4,2,4,2,4,2,3,4,2,6,5,6,6,3,3,6,4,4,5,5,3,5,5,4,5,5,5,5,5,5,2,3,6,5,5,2,2,5,5,6,2,2,3,5,2,3,5,4,3,3,1,20,2,NA, 0, 2,"",6,"Dating but not living together","how people evaluate how they feel about themselves based on their romantic relationship","nothing. but the mouse stuck to the desk which was somewhat irritating", 1,40.8006,-73.9653,-1,4,2,4,4,4,5,5,5,4,5,4,5,6,4,5,5,4,4.750000, 0.13510101,4,5,5,5,2,5,5,5,5,2,4,3,4.166667,-0.21085859, 0.58333333,4.458333, 0.34595960,-0.037878788,4,3,4,4,4,4,4,4,4,3,4,4,3.8, 0.14848485,4,4,4,4,4,4.0, 0.26060606,-0.2,3.9,-0.11212121, 0.204545455,3,5,5,4,4,6,3,6,6,5,5,6,4,4,5,5.0,-0.12424242,NA,"negative","insecure",NA,NA,NA,NA,0, 0, 0,22,NA,NA,NA,NA,"up",0,0.7764301,"2016_Sep_30_1104",60.00632,"heterogeneity160929b",1,  201, 1,-0.475,0.7764301,6.654707,201,-0.5, 776.4301,-0.614005051
201,"R_OD706cR7iwZ5kXf","Default Response Set","Anonymous",NA,NA,"128.59.230.241",0,"9/30/16 10:48","9/30/16 11:28",1,1,201, 91993,1,2,2,4,2,4,2,4,2,3,4,2,6,5,6,6,3,3,6,4,4,5,5,3,5,5,4,5,5,5,5,5,5,2,3,6,5,5,2,2,5,5,6,2,2,3,5,2,3,5,4,3,3,1,20,2,NA, 0, 2,"",6,"Dating but not living together","how people evaluate how they feel about themselves based on their romantic relationship","nothing. but the mouse stuck to the desk which was somewhat irritating", 1,40.8006,-73.9653,-1,4,2,4,4,4,5,5,5,4,5,4,5,6,4,5,5,4,4.750000, 0.13510101,4,5,5,5,2,5,5,5,5,2,4,3,4.166667,-0.21085859, 0.58333333,4.458333, 0.34595960,-0.037878788,4,3,4,4,4,4,4,4,4,3,4,4,3.8, 0.14848485,4,4,4,4,4,4.0, 0.26060606,-0.2,3.9,-0.11212121, 0.204545455,3,5,5,4,4,6,3,6,6,5,5,6,4,4,5,5.0,-0.12424242,NA,"positive","thrifty",NA,NA,NA,NA,0, 7, 7, 2,NA,NA,NA,NA,"up",0,0.8090930,"2016_Sep_30_1104",60.00632,"heterogeneity160929b",1,  201, 8,-0.300,0.8090930,6.695914,201, 0.5, 809.0930,-0.522270754
201,"R_OD706cR7iwZ5kXf","Default Response Set","Anonymous",NA,NA,"128.59.230.241",0,"9/30/16 10:48","9/30/16 11:28",1,1,201, 91993,1,2,2,4,2,4,2,4,2,3,4,2,6,5,6,6,3,3,6,4,4,5,5,3,5,5,4,5,5,5,5,5,5,2,3,6,5,5,2,2,5,5,6,2,2,3,5,2,3,5,4,3,3,1,20,2,NA, 0, 2,"",6,"Dating but not living together","how people evaluate how they feel about themselves based on their romantic relationship","nothing. but the mouse stuck to the desk which was somewhat irritating", 1,40.8006,-73.9653,-1,4,2,4,4,4,5,5,5,4,5,4,5,6,4,5,5,4,4.750000, 0.13510101,4,5,5,5,2,5,5,5,5,2,4,3,4.166667,-0.21085859, 0.58333333,4.458333, 0.34595960,-0.037878788,4,3,4,4,4,4,4,4,4,3,4,4,3.8, 0.14848485,4,4,4,4,4,4.0, 0.26060606,-0.2,3.9,-0.11212121, 0.204545455,3,5,5,4,4,6,3,6,6,5,5,6,4,4,5,5.0,-0.12424242,NA,"positive","wise",NA,NA,NA,NA,0, 9, 9,19,NA,NA,NA,NA,"up",0,0.9774442,"2016_Sep_30_1104",60.00632,"heterogeneity160929b",1,  201,10,-0.250,0.9774442,6.884941,201, 0.5, 977.4442,-0.049453244
201,"R_OD706cR7iwZ5kXf","Default Response Set","Anonymous",NA,NA,"128.59.230.241",0,"9/30/16 10:48","9/30/16 11:28",1,1,201, 91993,1,2,2,4,2,4,2,4,2,3,4,2,6,5,6,6,3,3,6,4,4,5,5,3,5,5,4,5,5,5,5,5,5,2,3,6,5,5,2,2,5,5,6,2,2,3,5,2,3,5,4,3,3,1,20,2,NA, 0, 2,"",6,"Dating but not living together","how people evaluate how they feel about themselves based on their romantic relationship","nothing. but the mouse stuck to the desk which was somewhat irritating", 1,40.8006,-73.9653,-1,4,2,4,4,4,5,5,5,4,5,4,5,6,4,5,5,4,4.750000, 0.13510101,4,5,5,5,2,5,5,5,5,2,4,3,4.166667,-0.21085859, 0.58333333,4.458333, 0.34595960,-0.037878788,4,3,4,4,4,4,4,4,4,3,4,4,3.8, 0.14848485,4,4,4,4,4,4.0, 0.26060606,-0.2,3.9,-0.11212121, 0.204545455,3,5,5,4,4,6,3,6,6,5,5,6,4,4,5,5.0,-0.12424242,NA,"negative","clumsy",NA,NA,NA,NA,0,11,11,23,NA,NA,NA,NA,"up",0,0.8267360,"2016_Sep_30_1104",60.00632,"heterogeneity160929b",1,  201,12,-0.200,0.8267360,6.717485,201,-0.5, 826.7360,-0.472720122
201,"R_OD706cR7iwZ5kXf","Default Response Set","Anonymous",NA,NA,"128.59.230.241",0,"9/30/16 10:48","9/30/16 11:28",1,1,201, 91993,1,2,2,4,2,4,2,4,2,3,4,2,6,5,6,6,3,3,6,4,4,5,5,3,5,5,4,5,5,5,5,5,5,2,3,6,5,5,2,2,5,5,6,2,2,3,5,2,3,5,4,3,3,1,20,2,NA, 0, 2,"",6,"Dating but not living together","how people evaluate how they feel about themselves based on their romantic relationship","nothing. but the mouse stuck to the desk which was somewhat irritating", 1,40.8006,-73.9653,-1,4,2,4,4,4,5,5,5,4,5,4,5,6,4,5,5,4,4.750000, 0.13510101,4,5,5,5,2,5,5,5,5,2,4,3,4.166667,-0.21085859, 0.58333333,4.458333, 0.34595960,-0.037878788,4,3,4,4,4,4,4,4,4,3,4,4,3.8, 0.14848485,4,4,4,4,4,4.0, 0.26060606,-0.2,3.9,-0.11212121, 0.204545455,3,5,5,4,4,6,3,6,6,5,5,6,4,4,5,5.0,-0.12424242,NA,"negative","anxious",NA,NA,NA,NA,0,12,12,35,NA,NA,NA,NA,"up",0,0.8430300,"2016_Sep_30_1104",60.00632,"heterogeneity160929b",1,  201,13,-0.175,0.8430300,6.737003,201,-0.5, 843.0300,-0.426958101
201,"R_OD706cR7iwZ5kXf","Default Response Set","Anonymous",NA,NA,"128.59.230.241",0,"9/30/16 10:48","9/30/16 11:28",1,1,201, 91993,1,2,2,4,2,4,2,4,2,3,4,2,6,5,6,6,3,3,6,4,4,5,5,3,5,5,4,5,5,5,5,5,5,2,3,6,5,5,2,2,5,5,6,2,2,3,5,2,3,5,4,3,3,1,20,2,NA, 0, 2,"",6,"Dating but not living together","how people evaluate how they feel about themselves based on their romantic relationship","nothing. but the mouse stuck to the desk which was somewhat irritating", 1,40.8006,-73.9653,-1,4,2,4,4,4,5,5,5,4,5,4,5,6,4,5,5,4,4.750000, 0.13510101,4,5,5,5,2,5,5,5,5,2,4,3,4.166667,-0.21085859, 0.58333333,4.458333, 0.34595960,-0.037878788,4,3,4,4,4,4,4,4,4,3,4,4,3.8, 0.14848485,4,4,4,4,4,4.0, 0.26060606,-0.2,3.9,-0.11212121, 0.204545455,3,5,5,4,4,6,3,6,6,5,5,6,4,4,5,5.0,-0.12424242,NA,"positive","enthusiastic",NA,NA,NA,NA,0,13,13,16,NA,NA,NA,NA,"up",0,0.8405669,"2016_Sep_30_1104",60.00632,"heterogeneity160929b",1,  201,14,-0.150,0.8405669,6.734077,201, 0.5, 840.5669,-0.433875771
201,"R_OD706cR7iwZ5kXf","Default Response Set","Anonymous",NA,NA,"128.59.230.241",0,"9/30/16 10:48","9/30/16 11:28",1,1,201, 91993,1,2,2,4,2,4,2,4,2,3,4,2,6,5,6,6,3,3,6,4,4,5,5,3,5,5,4,5,5,5,5,5,5,2,3,6,5,5,2,2,5,5,6,2,2,3,5,2,3,5,4,3,3,1,20,2,NA, 0, 2,"",6,"Dating but not living together","how people evaluate how they feel about themselves based on their romantic relationship","nothing. but the mouse stuck to the desk which was somewhat irritating", 1,40.8006,-73.9653,-1,4,2,4,4,4,5,5,5,4,5,4,5,6,4,5,5,4,4.750000, 0.13510101,4,5,5,5,2,5,5,5,5,2,4,3,4.166667,-0.21085859, 0.58333333,4.458333, 0.34595960,-0.037878788,4,3,4,4,4,4,4,4,4,3,4,4,3.8, 0.14848485,4,4,4,4,4,4.0, 0.26060606,-0.2,3.9,-0.11212121, 0.204545455,3,5,5,4,4,6,3,6,6,5,5,6,4,4,5,5.0,-0.12424242,NA,"positive","ambitious",NA,NA,NA,NA,0,14,14,10,NA,NA,NA,NA,"up",0,0.6755259,"2016_Sep_30_1104",60.00632,"heterogeneity160929b",1,  201,15,-0.125,0.6755259,6.515492,201, 0.5, 675.5259,-0.897396512
201,"R_OD706cR7iwZ5kXf","Default Response Set","Anonymous",NA,NA,"128.59.230.241",0,"9/30/16 10:48","9/30/16 11:28",1,1,201, 91993,1,2,2,4,2,4,2,4,2,3,4,2,6,5,6,6,3,3,6,4,4,5,5,3,5,5,4,5,5,5,5,5,5,2,3,6,5,5,2,2,5,5,6,2,2,3,5,2,3,5,4,3,3,1,20,2,NA, 0, 2,"",6,"Dating but not living together","how people evaluate how they feel about themselves based on their romantic relationship","nothing. but the mouse stuck to the desk which was somewhat irritating", 1,40.8006,-73.9653,-1,4,2,4,4,4,5,5,5,4,5,4,5,6,4,5,5,4,4.750000, 0.13510101,4,5,5,5,2,5,5,5,5,2,4,3,4.166667,-0.21085859, 0.58333333,4.458333, 0.34595960,-0.037878788,4,3,4,4,4,4,4,4,4,3,4,4,3.8, 0.14848485,4,4,4,4,4,4.0, 0.26060606,-0.2,3.9,-0.11212121, 0.204545455,3,5,5,4,4,6,3,6,6,5,5,6,4,4,5,5.0,-0.12424242,NA,"negative","fearful",NA,NA,NA,NA,0,17,17,24,NA,NA,NA,NA,"up",0,1.5594580,"2016_Sep_30_1104",60.00632,"heterogeneity160929b",1,  201,18,-0.050,1.5594580,7.352094,201,-0.5,1559.4580, 1.585143846
201,"R_OD706cR7iwZ5kXf","Default Response Set","Anonymous",NA,NA,"128.59.230.241",0,"9/30/16 10:48","9/30/16 11:28",1,1,201, 91993,1,2,2,4,2,4,2,4,2,3,4,2,6,5,6,6,3,3,6,4,4,5,5,3,5,5,4,5,5,5,5,5,5,2,3,6,5,5,2,2,5,5,6,2,2,3,5,2,3,5,4,3,3,1,20,2,NA, 0, 2,"",6,"Dating but not living together","how people evaluate how they feel about themselves based on their romantic relationship","nothing. but the mouse stuck to the desk which was somewhat irritating", 1,40.8006,-73.9653,-1,4,2,4,4,4,5,5,5,4,5,4,5,6,4,5,5,4,4.750000, 0.13510101,4,5,5,5,2,5,5,5,5,2,4,3,4.166667,-0.21085859, 0.58333333,4.458333, 0.34595960,-0.037878788,4,3,4,4,4,4,4,4,4,3,4,4,3.8, 0.14848485,4,4,4,4,4,4.0, 0.26060606,-0.2,3.9,-0.11212121, 0.204545455,3,5,5,4,4,6,3,6,6,5,5,6,4,4,5,5.0,-0.12424242,NA,"positive","courageous",NA,NA,NA,NA,0,18,18,15,NA,NA,NA,NA,"up",0,1.1751850,"2016_Sep_30_1104",60.00632,"heterogeneity160929b",1,  201,19,-0.025,1.1751850,7.069181,201, 0.5,1175.1850, 0.505905581
201,"R_OD706cR7iwZ5kXf","Default Response Set","Anonymous",NA,NA,"128.59.230.241",0,"9/30/16 10:48","9/30/16 11:28",1,1,201, 91993,1,2,2,4,2,4,2,4,2,3,4,2,6,5,6,6,3,3,6,4,4,5,5,3,5,5,4,5,5,5,5,5,5,2,3,6,5,5,2,2,5,5,6,2,2,3,5,2,3,5,4,3,3,1,20,2,NA, 0, 2,"",6,"Dating but not living together","how people evaluate how they feel about themselves based on their romantic relationship","nothing. but the mouse stuck to the desk which was somewhat irritating", 1,40.8006,-73.9653,-1,4,2,4,4,4,5,5,5,4,5,4,5,6,4,5,5,4,4.750000, 0.13510101,4,5,5,5,2,5,5,5,5,2,4,3,4.166667,-0.21085859, 0.58333333,4.458333, 0.34595960,-0.037878788,4,3,4,4,4,4,4,4,4,3,4,4,3.8, 0.14848485,4,4,4,4,4,4.0, 0.26060606,-0.2,3.9,-0.11212121, 0.204545455,3,5,5,4,4,6,3,6,6,5,5,6,4,4,5,5.0,-0.12424242,NA,"positive","confident",NA,NA,NA,NA,0,19,19, 7,NA,NA,NA,NA,"up",0,0.9918990,"2016_Sep_30_1104",60.00632,"heterogeneity160929b",1,  201,20, 0.000,0.9918990,6.899621,201, 0.5, 991.8990,-0.008856542
201,"R_OD706cR7iwZ5kXf","Default Response Set","Anonymous",NA,NA,"128.59.230.241",0,"9/30/16 10:48","9/30/16 11:28",1,1,201, 91993,1,2,2,4,2,4,2,4,2,3,4,2,6,5,6,6,3,3,6,4,4,5,5,3,5,5,4,5,5,5,5,5,5,2,3,6,5,5,2,2,5,5,6,2,2,3,5,2,3,5,4,3,3,1,20,2,NA, 0, 2,"",6,"Dating but not living together","how people evaluate how they feel about themselves based on their romantic relationship","nothing. but the mouse stuck to the desk which was somewhat irritating", 1,40.8006,-73.9653,-1,4,2,4,4,4,5,5,5,4,5,4,5,6,4,5,5,4,4.750000, 0.13510101,4,5,5,5,2,5,5,5,5,2,4,3,4.166667,-0.21085859, 0.58333333,4.458333, 0.34595960,-0.037878788,4,3,4,4,4,4,4,4,4,3,4,4,3.8, 0.14848485,4,4,4,4,4,4.0, 0.26060606,-0.2,3.9,-0.11212121, 0.204545455,3,5,5,4,4,6,3,6,6,5,5,6,4,4,5,5.0,-0.12424242,NA,"positive","persistent",NA,NA,NA,NA,0,22,22,13,NA,NA,NA,NA,"up",0,0.7586100,"2016_Sep_30_1104",60.00632,"heterogeneity160929b",1,  201,23, 0.075,0.7586100,6.631488,201, 0.5, 758.6100,-0.664053201
201,"R_OD706cR7iwZ5kXf","Default Response Set","Anonymous",NA,NA,"128.59.230.241",0,"9/30/16 10:48","9/30/16 11:28",1,1,201, 91993,1,2,2,4,2,4,2,4,2,3,4,2,6,5,6,6,3,3,6,4,4,5,5,3,5,5,4,5,5,5,5,5,5,2,3,6,5,5,2,2,5,5,6,2,2,3,5,2,3,5,4,3,3,1,20,2,NA, 0, 2,"",6,"Dating but not living together","how people evaluate how they feel about themselves based on their romantic relationship","nothing. but the mouse stuck to the desk which was somewhat irritating", 1,40.8006,-73.9653,-1,4,2,4,4,4,5,5,5,4,5,4,5,6,4,5,5,4,4.750000, 0.13510101,4,5,5,5,2,5,5,5,5,2,4,3,4.166667,-0.21085859, 0.58333333,4.458333, 0.34595960,-0.037878788,4,3,4,4,4,4,4,4,4,3,4,4,3.8, 0.14848485,4,4,4,4,4,4.0, 0.26060606,-0.2,3.9,-0.11212121, 0.204545455,3,5,5,4,4,6,3,6,6,5,5,6,4,4,5,5.0,-0.12424242,NA,"positive","orderly",NA,NA,NA,NA,0,24,24,14,NA,NA,NA,NA,"up",0,0.7927721,"2016_Sep_30_1104",60.00632,"heterogeneity160929b",1,  201,25, 0.125,0.7927721,6.675536,201, 0.5, 792.7721,-0.568108440
201,"R_OD706cR7iwZ5kXf","Default Response Set","Anonymous",NA,NA,"128.59.230.241",0,"9/30/16 10:48","9/30/16 11:28",1,1,201, 91993,1,2,2,4,2,4,2,4,2,3,4,2,6,5,6,6,3,3,6,4,4,5,5,3,5,5,4,5,5,5,5,5,5,2,3,6,5,5,2,2,5,5,6,2,2,3,5,2,3,5,4,3,3,1,20,2,NA, 0, 2,"",6,"Dating but not living together","how people evaluate how they feel about themselves based on their romantic relationship","nothing. but the mouse stuck to the desk which was somewhat irritating", 1,40.8006,-73.9653,-1,4,2,4,4,4,5,5,5,4,5,4,5,6,4,5,5,4,4.750000, 0.13510101,4,5,5,5,2,5,5,5,5,2,4,3,4.166667,-0.21085859, 0.58333333,4.458333, 0.34595960,-0.037878788,4,3,4,4,4,4,4,4,4,3,4,4,3.8, 0.14848485,4,4,4,4,4,4.0, 0.26060606,-0.2,3.9,-0.11212121, 0.204545455,3,5,5,4,4,6,3,6,6,5,5,6,4,4,5,5.0,-0.12424242,NA,"positive","talented",NA,NA,NA,NA,0,25,25, 0,NA,NA,NA,NA,"up",0,0.9903312,"2016_Sep_30_1104",60.00632,"heterogeneity160929b",1,  201,26, 0.150,0.9903312,6.898039,201, 0.5, 990.3312,-0.013259853
201,"R_OD706cR7iwZ5kXf","Default Response Set","Anonymous",NA,NA,"128.59.230.241",0,"9/30/16 10:48","9/30/16 11:28",1,1,201, 91993,1,2,2,4,2,4,2,4,2,3,4,2,6,5,6,6,3,3,6,4,4,5,5,3,5,5,4,5,5,5,5,5,5,2,3,6,5,5,2,2,5,5,6,2,2,3,5,2,3,5,4,3,3,1,20,2,NA, 0, 2,"",6,"Dating but not living together","how people evaluate how they feel about themselves based on their romantic relationship","nothing. but the mouse stuck to the desk which was somewhat irritating", 1,40.8006,-73.9653,-1,4,2,4,4,4,5,5,5,4,5,4,5,6,4,5,5,4,4.750000, 0.13510101,4,5,5,5,2,5,5,5,5,2,4,3,4.166667,-0.21085859, 0.58333333,4.458333, 0.34595960,-0.037878788,4,3,4,4,4,4,4,4,4,3,4,4,3.8, 0.14848485,4,4,4,4,4,4.0, 0.26060606,-0.2,3.9,-0.11212121, 0.204545455,3,5,5,4,4,6,3,6,6,5,5,6,4,4,5,5.0,-0.12424242,NA,"negative","messy",NA,NA,NA,NA,0,26,26,36,NA,NA,NA,NA,"up",0,0.9936080,"2016_Sep_30_1104",60.00632,"heterogeneity160929b",1,  201,27, 0.175,0.9936080,6.901343,201,-0.5, 993.6080,-0.004056827
201,"R_OD706cR7iwZ5kXf","Default Response Set","Anonymous",NA,NA,"128.59.230.241",0,"9/30/16 10:48","9/30/16 11:28",1,1,201, 91993,1,2,2,4,2,4,2,4,2,3,4,2,6,5,6,6,3,3,6,4,4,5,5,3,5,5,4,5,5,5,5,5,5,2,3,6,5,5,2,2,5,5,6,2,2,3,5,2,3,5,4,3,3,1,20,2,NA, 0, 2,"",6,"Dating but not living together","how people evaluate how they feel about themselves based on their romantic relationship","nothing. but the mouse stuck to the desk which was somewhat irritating", 1,40.8006,-73.9653,-1,4,2,4,4,4,5,5,5,4,5,4,5,6,4,5,5,4,4.750000, 0.13510101,4,5,5,5,2,5,5,5,5,2,4,3,4.166667,-0.21085859, 0.58333333,4.458333, 0.34595960,-0.037878788,4,3,4,4,4,4,4,4,4,3,4,4,3.8, 0.14848485,4,4,4,4,4,4.0, 0.26060606,-0.2,3.9,-0.11212121, 0.204545455,3,5,5,4,4,6,3,6,6,5,5,6,4,4,5,5.0,-0.12424242,NA,"positive","trusting",NA,NA,NA,NA,0,27,27, 8,NA,NA,NA,NA,"up",0,1.1924739,"2016_Sep_30_1104",60.00632,"heterogeneity160929b",1,  201,28, 0.200,1.1924739,7.083785,201, 0.5,1192.4739, 0.554461854
201,"R_OD706cR7iwZ5kXf","Default Response Set","Anonymous",NA,NA,"128.59.230.241",0,"9/30/16 10:48","9/30/16 11:28",1,1,201, 91993,1,2,2,4,2,4,2,4,2,3,4,2,6,5,6,6,3,3,6,4,4,5,5,3,5,5,4,5,5,5,5,5,5,2,3,6,5,5,2,2,5,5,6,2,2,3,5,2,3,5,4,3,3,1,20,2,NA, 0, 2,"",6,"Dating but not living together","how people evaluate how they feel about themselves based on their romantic relationship","nothing. but the mouse stuck to the desk which was somewhat irritating", 1,40.8006,-73.9653,-1,4,2,4,4,4,5,5,5,4,5,4,5,6,4,5,5,4,4.750000, 0.13510101,4,5,5,5,2,5,5,5,5,2,4,3,4.166667,-0.21085859, 0.58333333,4.458333, 0.34595960,-0.037878788,4,3,4,4,4,4,4,4,4,3,4,4,3.8, 0.14848485,4,4,4,4,4,4.0, 0.26060606,-0.2,3.9,-0.11212121, 0.204545455,3,5,5,4,4,6,3,6,6,5,5,6,4,4,5,5.0,-0.12424242,NA,"positive","proud",NA,NA,NA,NA,0,28,28,11,NA,NA,NA,NA,"up",0,1.3436041,"2016_Sep_30_1104",60.00632,"heterogeneity160929b",1,  201,29, 0.225,1.3436041,7.203111,201, 0.5,1343.6041, 0.978913930
201,"R_OD706cR7iwZ5kXf","Default Response Set","Anonymous",NA,NA,"128.59.230.241",0,"9/30/16 10:48","9/30/16 11:28",1,1,201, 91993,1,2,2,4,2,4,2,4,2,3,4,2,6,5,6,6,3,3,6,4,4,5,5,3,5,5,4,5,5,5,5,5,5,2,3,6,5,5,2,2,5,5,6,2,2,3,5,2,3,5,4,3,3,1,20,2,NA, 0, 2,"",6,"Dating but not living together","how people evaluate how they feel about themselves based on their romantic relationship","nothing. but the mouse stuck to the desk which was somewhat irritating", 1,40.8006,-73.9653,-1,4,2,4,4,4,5,5,5,4,5,4,5,6,4,5,5,4,4.750000, 0.13510101,4,5,5,5,2,5,5,5,5,2,4,3,4.166667,-0.21085859, 0.58333333,4.458333, 0.34595960,-0.037878788,4,3,4,4,4,4,4,4,4,3,4,4,3.8, 0.14848485,4,4,4,4,4,4.0, 0.26060606,-0.2,3.9,-0.11212121, 0.204545455,3,5,5,4,4,6,3,6,6,5,5,6,4,4,5,5.0,-0.12424242,NA,"positive","disciplined",NA,NA,NA,NA,0,29,29, 1,NA,NA,NA,NA,"up",0,0.7749238,"2016_Sep_30_1104",60.00632,"heterogeneity160929b",1,  201,30, 0.250,0.7749238,6.652765,201, 0.5, 774.9238,-0.618235605
201,"R_OD706cR7iwZ5kXf","Default Response Set","Anonymous",NA,NA,"128.59.230.241",0,"9/30/16 10:48","9/30/16 11:28",1,1,201, 91993,1,2,2,4,2,4,2,4,2,3,4,2,6,5,6,6,3,3,6,4,4,5,5,3,5,5,4,5,5,5,5,5,5,2,3,6,5,5,2,2,5,5,6,2,2,3,5,2,3,5,4,3,3,1,20,2,NA, 0, 2,"",6,"Dating but not living together","how people evaluate how they feel about themselves based on their romantic relationship","nothing. but the mouse stuck to the desk which was somewhat irritating", 1,40.8006,-73.9653,-1,4,2,4,4,4,5,5,5,4,5,4,5,6,4,5,5,4,4.750000, 0.13510101,4,5,5,5,2,5,5,5,5,2,4,3,4.166667,-0.21085859, 0.58333333,4.458333, 0.34595960,-0.037878788,4,3,4,4,4,4,4,4,4,3,4,4,3.8, 0.14848485,4,4,4,4,4,4.0, 0.26060606,-0.2,3.9,-0.11212121, 0.204545455,3,5,5,4,4,6,3,6,6,5,5,6,4,4,5,5.0,-0.12424242,NA,"negative","stubborn",NA,NA,NA,NA,0,30,30,39,NA,NA,NA,NA,"up",0,0.6261199,"2016_Sep_30_1104",60.00632,"heterogeneity160929b",1,  201,31, 0.275,0.6261199,6.439542,201,-0.5, 626.1199,-1.036154361
201,"R_OD706cR7iwZ5kXf","Default Response Set","Anonymous",NA,NA,"128.59.230.241",0,"9/30/16 10:48","9/30/16 11:28",1,1,201, 91993,1,2,2,4,2,4,2,4,2,3,4,2,6,5,6,6,3,3,6,4,4,5,5,3,5,5,4,5,5,5,5,5,5,2,3,6,5,5,2,2,5,5,6,2,2,3,5,2,3,5,4,3,3,1,20,2,NA, 0, 2,"",6,"Dating but not living together","how people evaluate how they feel about themselves based on their romantic relationship","nothing. but the mouse stuck to the desk which was somewhat irritating", 1,40.8006,-73.9653,-1,4,2,4,4,4,5,5,5,4,5,4,5,6,4,5,5,4,4.750000, 0.13510101,4,5,5,5,2,5,5,5,5,2,4,3,4.166667,-0.21085859, 0.58333333,4.458333, 0.34595960,-0.037878788,4,3,4,4,4,4,4,4,4,3,4,4,3.8, 0.14848485,4,4,4,4,4,4.0, 0.26060606,-0.2,3.9,-0.11212121, 0.204545455,3,5,5,4,4,6,3,6,6,5,5,6,4,4,5,5.0,-0.12424242,NA,"negative","inhibited",NA,NA,NA,NA,0,31,31,25,NA,NA,NA,NA,"up",0,1.0755310,"2016_Sep_30_1104",60.00632,"heterogeneity160929b",1,  201,32, 0.300,1.0755310,6.980570,201,-0.5,1075.5310, 0.226025518
201,"R_OD706cR7iwZ5kXf","Default Response Set","Anonymous",NA,NA,"128.59.230.241",0,"9/30/16 10:48","9/30/16 11:28",1,1,201, 91993,1,2,2,4,2,4,2,4,2,3,4,2,6,5,6,6,3,3,6,4,4,5,5,3,5,5,4,5,5,5,5,5,5,2,3,6,5,5,2,2,5,5,6,2,2,3,5,2,3,5,4,3,3,1,20,2,NA, 0, 2,"",6,"Dating but not living together","how people evaluate how they feel about themselves based on their romantic relationship","nothing. but the mouse stuck to the desk which was somewhat irritating", 1,40.8006,-73.9653,-1,4,2,4,4,4,5,5,5,4,5,4,5,6,4,5,5,4,4.750000, 0.13510101,4,5,5,5,2,5,5,5,5,2,4,3,4.166667,-0.21085859, 0.58333333,4.458333, 0.34595960,-0.037878788,4,3,4,4,4,4,4,4,4,3,4,4,3.8, 0.14848485,4,4,4,4,4,4.0, 0.26060606,-0.2,3.9,-0.11212121, 0.204545455,3,5,5,4,4,6,3,6,6,5,5,6,4,4,5,5.0,-0.12424242,NA,"negative","worrying",NA,NA,NA,NA,0,33,33,32,NA,NA,NA,NA,"up",0,0.8092182,"2016_Sep_30_1104",60.00632,"heterogeneity160929b",1,  201,34, 0.350,0.8092182,6.696069,201,-0.5, 809.2182,-0.521919215
201,"R_OD706cR7iwZ5kXf","Default Response Set","Anonymous",NA,NA,"128.59.230.241",0,"9/30/16 10:48","9/30/16 11:28",1,1,201, 91993,1,2,2,4,2,4,2,4,2,3,4,2,6,5,6,6,3,3,6,4,4,5,5,3,5,5,4,5,5,5,5,5,5,2,3,6,5,5,2,2,5,5,6,2,2,3,5,2,3,5,4,3,3,1,20,2,NA, 0, 2,"",6,"Dating but not living together","how people evaluate how they feel about themselves based on their romantic relationship","nothing. but the mouse stuck to the desk which was somewhat irritating", 1,40.8006,-73.9653,-1,4,2,4,4,4,5,5,5,4,5,4,5,6,4,5,5,4,4.750000, 0.13510101,4,5,5,5,2,5,5,5,5,2,4,3,4.166667,-0.21085859, 0.58333333,4.458333, 0.34595960,-0.037878788,4,3,4,4,4,4,4,4,4,3,4,4,3.8, 0.14848485,4,4,4,4,4,4.0, 0.26060606,-0.2,3.9,-0.11212121, 0.204545455,3,5,5,4,4,6,3,6,6,5,5,6,4,4,5,5.0,-0.12424242,NA,"negative","cynical",NA,NA,NA,NA,0,34,34,37,NA,NA,NA,NA,"up",0,0.6596160,"2016_Sep_30_1104",60.00632,"heterogeneity160929b",1,  201,35, 0.375,0.6596160,6.491658,201,-0.5, 659.6160,-0.942079801
201,"R_OD706cR7iwZ5kXf","Default Response Set","Anonymous",NA,NA,"128.59.230.241",0,"9/30/16 10:48","9/30/16 11:28",1,1,201, 91993,1,2,2,4,2,4,2,4,2,3,4,2,6,5,6,6,3,3,6,4,4,5,5,3,5,5,4,5,5,5,5,5,5,2,3,6,5,5,2,2,5,5,6,2,2,3,5,2,3,5,4,3,3,1,20,2,NA, 0, 2,"",6,"Dating but not living together","how people evaluate how they feel about themselves based on their romantic relationship","nothing. but the mouse stuck to the desk which was somewhat irritating", 1,40.8006,-73.9653,-1,4,2,4,4,4,5,5,5,4,5,4,5,6,4,5,5,4,4.750000, 0.13510101,4,5,5,5,2,5,5,5,5,2,4,3,4.166667,-0.21085859, 0.58333333,4.458333, 0.34595960,-0.037878788,4,3,4,4,4,4,4,4,4,3,4,4,3.8, 0.14848485,4,4,4,4,4,4.0, 0.26060606,-0.2,3.9,-0.11212121, 0.204545455,3,5,5,4,4,6,3,6,6,5,5,6,4,4,5,5.0,-0.12424242,NA,"positive","idealistic",NA,NA,NA,NA,0,36,36, 3,NA,NA,NA,NA,"up",0,0.6255448,"2016_Sep_30_1104",60.00632,"heterogeneity160929b",1,  201,37, 0.425,0.6255448,6.438623,201, 0.5, 625.5448,-1.037769445
201,"R_OD706cR7iwZ5kXf","Default Response Set","Anonymous",NA,NA,"128.59.230.241",0,"9/30/16 10:48","9/30/16 11:28",1,1,201, 91993,1,2,2,4,2,4,2,4,2,3,4,2,6,5,6,6,3,3,6,4,4,5,5,3,5,5,4,5,5,5,5,5,5,2,3,6,5,5,2,2,5,5,6,2,2,3,5,2,3,5,4,3,3,1,20,2,NA, 0, 2,"",6,"Dating but not living together","how people evaluate how they feel about themselves based on their romantic relationship","nothing. but the mouse stuck to the desk which was somewhat irritating", 1,40.8006,-73.9653,-1,4,2,4,4,4,5,5,5,4,5,4,5,6,4,5,5,4,4.750000, 0.13510101,4,5,5,5,2,5,5,5,5,2,4,3,4.166667,-0.21085859, 0.58333333,4.458333, 0.34595960,-0.037878788,4,3,4,4,4,4,4,4,4,3,4,4,3.8, 0.14848485,4,4,4,4,4,4.0, 0.26060606,-0.2,3.9,-0.11212121, 0.204545455,3,5,5,4,4,6,3,6,6,5,5,6,4,4,5,5.0,-0.12424242,NA,"positive","inventive",NA,NA,NA,NA,0,39,39,18,NA,NA,NA,NA,"up",0,0.7422462,"2016_Sep_30_1104",60.00632,"heterogeneity160929b",1,  201,40, 0.500,0.7422462,6.609681,201, 0.5, 742.2462,-0.710011414
202,"R_OIqeDfsqFxKQhfb","Default Response Set","Anonymous",NA,NA,"128.59.230.241",0,"9/30/16 11:28","9/30/16 11:39",1,1,202,109054,1,2,2,4,2,3,2,4,2,2,4,3,6,3,7,6,2,2,7,3,1,6,6,2,3,6,6,4,5,5,5,2,5,1,5,2,5,5,5,2,6,5,5,3,2,5,5,1,2,6,5,6,3,1,22,1,NA, 0, 2,"",1,"","Almost all questions were related to personality, behavior or attitude. So the hypothesis must be something from this field. I don't think it is specific to students alone","I think the questions were very well done as there were no leading questions, whatsoever. By the end of all the questions, I still am not sure what is the hypothesis being tested, which is a good thing as I cannot be biased now. I did notice one thing though, in the last few questions, there wee more negative options than positive ones. ( I don't know if that was by design but it was something that caught my eye )", 1,40.8006,-73.9653,-1,5,5,5,2,2,6,3,6,6,5,2,5,5,2,5,6,5,4.666667, 0.05176768,5,4,5,5,5,5,5,6,5,3,5,6,4.916667, 0.53914141,-0.25000000,4.791667,-0.48737374, 0.295454545,4,4,3,4,4,4,4,4,4,4,4,3,3.8, 0.14848485,4,4,3,4,4,3.8, 0.06060606, 0.0,3.8, 0.08787879, 0.104545455,5,6,6,5,7,6,5,7,6,6,6,7,5,7,6,6.1, 0.97575758,NA,"positive","disciplined",NA,NA,NA,NA,0, 1, 1, 1,NA,NA,NA,NA,"up",0,0.7249870,"2016_Sep_30_1140",59.97535,"heterogeneity160929b",1,  202, 2,-0.450,0.7249870,6.586154,202, 0.5, 724.9870,-0.758483988
202,"R_OIqeDfsqFxKQhfb","Default Response Set","Anonymous",NA,NA,"128.59.230.241",0,"9/30/16 11:28","9/30/16 11:39",1,1,202,109054,1,2,2,4,2,3,2,4,2,2,4,3,6,3,7,6,2,2,7,3,1,6,6,2,3,6,6,4,5,5,5,2,5,1,5,2,5,5,5,2,6,5,5,3,2,5,5,1,2,6,5,6,3,1,22,1,NA, 0, 2,"",1,"","Almost all questions were related to personality, behavior or attitude. So the hypothesis must be something from this field. I don't think it is specific to students alone","I think the questions were very well done as there were no leading questions, whatsoever. By the end of all the questions, I still am not sure what is the hypothesis being tested, which is a good thing as I cannot be biased now. I did notice one thing though, in the last few questions, there wee more negative options than positive ones. ( I don't know if that was by design but it was something that caught my eye )", 1,40.8006,-73.9653,-1,5,5,5,2,2,6,3,6,6,5,2,5,5,2,5,6,5,4.666667, 0.05176768,5,4,5,5,5,5,5,6,5,3,5,6,4.916667, 0.53914141,-0.25000000,4.791667,-0.48737374, 0.295454545,4,4,3,4,4,4,4,4,4,4,4,3,3.8, 0.14848485,4,4,3,4,4,3.8, 0.06060606, 0.0,3.8, 0.08787879, 0.104545455,5,6,6,5,7,6,5,7,6,6,6,7,5,7,6,6.1, 0.97575758,NA,"negative","irritable",NA,NA,NA,NA,0, 2, 2,27,NA,NA,NA,NA,"up",0,1.1086020,"2016_Sep_30_1140",59.97535,"heterogeneity160929b",1,  202, 3,-0.425,1.1086020,7.010855,202,-0.5,1108.6020, 0.318906174
202,"R_OIqeDfsqFxKQhfb","Default Response Set","Anonymous",NA,NA,"128.59.230.241",0,"9/30/16 11:28","9/30/16 11:39",1,1,202,109054,1,2,2,4,2,3,2,4,2,2,4,3,6,3,7,6,2,2,7,3,1,6,6,2,3,6,6,4,5,5,5,2,5,1,5,2,5,5,5,2,6,5,5,3,2,5,5,1,2,6,5,6,3,1,22,1,NA, 0, 2,"",1,"","Almost all questions were related to personality, behavior or attitude. So the hypothesis must be something from this field. I don't think it is specific to students alone","I think the questions were very well done as there were no leading questions, whatsoever. By the end of all the questions, I still am not sure what is the hypothesis being tested, which is a good thing as I cannot be biased now. I did notice one thing though, in the last few questions, there wee more negative options than positive ones. ( I don't know if that was by design but it was something that caught my eye )", 1,40.8006,-73.9653,-1,5,5,5,2,2,6,3,6,6,5,2,5,5,2,5,6,5,4.666667, 0.05176768,5,4,5,5,5,5,5,6,5,3,5,6,4.916667, 0.53914141,-0.25000000,4.791667,-0.48737374, 0.295454545,4,4,3,4,4,4,4,4,4,4,4,3,3.8, 0.14848485,4,4,3,4,4,3.8, 0.06060606, 0.0,3.8, 0.08787879, 0.104545455,5,6,6,5,7,6,5,7,6,6,6,7,5,7,6,6.1, 0.97575758,NA,"positive","trusting",NA,NA,NA,NA,0, 4, 4, 8,NA,NA,NA,NA,"up",0,0.7258430,"2016_Sep_30_1140",59.97535,"heterogeneity160929b",1,  202, 5,-0.375,0.7258430,6.587334,202, 0.5, 725.8430,-0.756080112
202,"R_OIqeDfsqFxKQhfb","Default Response Set","Anonymous",NA,NA,"128.59.230.241",0,"9/30/16 11:28","9/30/16 11:39",1,1,202,109054,1,2,2,4,2,3,2,4,2,2,4,3,6,3,7,6,2,2,7,3,1,6,6,2,3,6,6,4,5,5,5,2,5,1,5,2,5,5,5,2,6,5,5,3,2,5,5,1,2,6,5,6,3,1,22,1,NA, 0, 2,"",1,"","Almost all questions were related to personality, behavior or attitude. So the hypothesis must be something from this field. I don't think it is specific to students alone","I think the questions were very well done as there were no leading questions, whatsoever. By the end of all the questions, I still am not sure what is the hypothesis being tested, which is a good thing as I cannot be biased now. I did notice one thing though, in the last few questions, there wee more negative options than positive ones. ( I don't know if that was by design but it was something that caught my eye )", 1,40.8006,-73.9653,-1,5,5,5,2,2,6,3,6,6,5,2,5,5,2,5,6,5,4.666667, 0.05176768,5,4,5,5,5,5,5,6,5,3,5,6,4.916667, 0.53914141,-0.25000000,4.791667,-0.48737374, 0.295454545,4,4,3,4,4,4,4,4,4,4,4,3,3.8, 0.14848485,4,4,3,4,4,3.8, 0.06060606, 0.0,3.8, 0.08787879, 0.104545455,5,6,6,5,7,6,5,7,6,6,6,7,5,7,6,6.1, 0.97575758,NA,"positive","talented",NA,NA,NA,NA,0, 5, 5, 0,NA,NA,NA,NA,"up",0,0.5924771,"2016_Sep_30_1140",59.97535,"heterogeneity160929b",1,  202, 6,-0.350,0.5924771,6.384312,202, 0.5, 592.4771,-1.130640725
202,"R_OIqeDfsqFxKQhfb","Default Response Set","Anonymous",NA,NA,"128.59.230.241",0,"9/30/16 11:28","9/30/16 11:39",1,1,202,109054,1,2,2,4,2,3,2,4,2,2,4,3,6,3,7,6,2,2,7,3,1,6,6,2,3,6,6,4,5,5,5,2,5,1,5,2,5,5,5,2,6,5,5,3,2,5,5,1,2,6,5,6,3,1,22,1,NA, 0, 2,"",1,"","Almost all questions were related to personality, behavior or attitude. So the hypothesis must be something from this field. I don't think it is specific to students alone","I think the questions were very well done as there were no leading questions, whatsoever. By the end of all the questions, I still am not sure what is the hypothesis being tested, which is a good thing as I cannot be biased now. I did notice one thing though, in the last few questions, there wee more negative options than positive ones. ( I don't know if that was by design but it was something that caught my eye )", 1,40.8006,-73.9653,-1,5,5,5,2,2,6,3,6,6,5,2,5,5,2,5,6,5,4.666667, 0.05176768,5,4,5,5,5,5,5,6,5,3,5,6,4.916667, 0.53914141,-0.25000000,4.791667,-0.48737374, 0.295454545,4,4,3,4,4,4,4,4,4,4,4,3,3.8, 0.14848485,4,4,3,4,4,3.8, 0.06060606, 0.0,3.8, 0.08787879, 0.104545455,5,6,6,5,7,6,5,7,6,6,6,7,5,7,6,6.1, 0.97575758,NA,"negative","worrying",NA,NA,NA,NA,0, 8, 8,32,NA,NA,NA,NA,"up",0,0.8088801,"2016_Sep_30_1140",59.97535,"heterogeneity160929b",1,  202, 9,-0.275,0.8088801,6.695651,202,-0.5, 808.8801,-0.522868711
202,"R_OIqeDfsqFxKQhfb","Default Response Set","Anonymous",NA,NA,"128.59.230.241",0,"9/30/16 11:28","9/30/16 11:39",1,1,202,109054,1,2,2,4,2,3,2,4,2,2,4,3,6,3,7,6,2,2,7,3,1,6,6,2,3,6,6,4,5,5,5,2,5,1,5,2,5,5,5,2,6,5,5,3,2,5,5,1,2,6,5,6,3,1,22,1,NA, 0, 2,"",1,"","Almost all questions were related to personality, behavior or attitude. So the hypothesis must be something from this field. I don't think it is specific to students alone","I think the questions were very well done as there were no leading questions, whatsoever. By the end of all the questions, I still am not sure what is the hypothesis being tested, which is a good thing as I cannot be biased now. I did notice one thing though, in the last few questions, there wee more negative options than positive ones. ( I don't know if that was by design but it was something that caught my eye )", 1,40.8006,-73.9653,-1,5,5,5,2,2,6,3,6,6,5,2,5,5,2,5,6,5,4.666667, 0.05176768,5,4,5,5,5,5,5,6,5,3,5,6,4.916667, 0.53914141,-0.25000000,4.791667,-0.48737374, 0.295454545,4,4,3,4,4,4,4,4,4,4,4,3,3.8, 0.14848485,4,4,3,4,4,3.8, 0.06060606, 0.0,3.8, 0.08787879, 0.104545455,5,6,6,5,7,6,5,7,6,6,6,7,5,7,6,6.1, 0.97575758,NA,"positive","persistent",NA,NA,NA,NA,0, 9, 9,13,NA,NA,NA,NA,"up",0,0.7577460,"2016_Sep_30_1140",59.97535,"heterogeneity160929b",1,  202,10,-0.250,0.7577460,6.630348,202, 0.5, 757.7460,-0.666479843
202,"R_OIqeDfsqFxKQhfb","Default Response Set","Anonymous",NA,NA,"128.59.230.241",0,"9/30/16 11:28","9/30/16 11:39",1,1,202,109054,1,2,2,4,2,3,2,4,2,2,4,3,6,3,7,6,2,2,7,3,1,6,6,2,3,6,6,4,5,5,5,2,5,1,5,2,5,5,5,2,6,5,5,3,2,5,5,1,2,6,5,6,3,1,22,1,NA, 0, 2,"",1,"","Almost all questions were related to personality, behavior or attitude. So the hypothesis must be something from this field. I don't think it is specific to students alone","I think the questions were very well done as there were no leading questions, whatsoever. By the end of all the questions, I still am not sure what is the hypothesis being tested, which is a good thing as I cannot be biased now. I did notice one thing though, in the last few questions, there wee more negative options than positive ones. ( I don't know if that was by design but it was something that caught my eye )", 1,40.8006,-73.9653,-1,5,5,5,2,2,6,3,6,6,5,2,5,5,2,5,6,5,4.666667, 0.05176768,5,4,5,5,5,5,5,6,5,3,5,6,4.916667, 0.53914141,-0.25000000,4.791667,-0.48737374, 0.295454545,4,4,3,4,4,4,4,4,4,4,4,3,3.8, 0.14848485,4,4,3,4,4,3.8, 0.06060606, 0.0,3.8, 0.08787879, 0.104545455,5,6,6,5,7,6,5,7,6,6,6,7,5,7,6,6.1, 0.97575758,NA,"positive","courageous",NA,NA,NA,NA,0,10,10,15,NA,NA,NA,NA,"up",0,0.5917590,"2016_Sep_30_1140",59.97535,"heterogeneity160929b",1,  202,11,-0.225,0.5917590,6.383099,202, 0.5, 591.7590,-1.132657571
202,"R_OIqeDfsqFxKQhfb","Default Response Set","Anonymous",NA,NA,"128.59.230.241",0,"9/30/16 11:28","9/30/16 11:39",1,1,202,109054,1,2,2,4,2,3,2,4,2,2,4,3,6,3,7,6,2,2,7,3,1,6,6,2,3,6,6,4,5,5,5,2,5,1,5,2,5,5,5,2,6,5,5,3,2,5,5,1,2,6,5,6,3,1,22,1,NA, 0, 2,"",1,"","Almost all questions were related to personality, behavior or attitude. So the hypothesis must be something from this field. I don't think it is specific to students alone","I think the questions were very well done as there were no leading questions, whatsoever. By the end of all the questions, I still am not sure what is the hypothesis being tested, which is a good thing as I cannot be biased now. I did notice one thing though, in the last few questions, there wee more negative options than positive ones. ( I don't know if that was by design but it was something that caught my eye )", 1,40.8006,-73.9653,-1,5,5,5,2,2,6,3,6,6,5,2,5,5,2,5,6,5,4.666667, 0.05176768,5,4,5,5,5,5,5,6,5,3,5,6,4.916667, 0.53914141,-0.25000000,4.791667,-0.48737374, 0.295454545,4,4,3,4,4,4,4,4,4,4,4,3,3.8, 0.14848485,4,4,3,4,4,3.8, 0.06060606, 0.0,3.8, 0.08787879, 0.104545455,5,6,6,5,7,6,5,7,6,6,6,7,5,7,6,6.1, 0.97575758,NA,"negative","stubborn",NA,NA,NA,NA,0,12,12,39,NA,NA,NA,NA,"up",0,0.7092030,"2016_Sep_30_1140",59.97535,"heterogeneity160929b",1,  202,13,-0.175,0.7092030,6.564142,202,-0.5, 709.2030,-0.802813726
202,"R_OIqeDfsqFxKQhfb","Default Response Set","Anonymous",NA,NA,"128.59.230.241",0,"9/30/16 11:28","9/30/16 11:39",1,1,202,109054,1,2,2,4,2,3,2,4,2,2,4,3,6,3,7,6,2,2,7,3,1,6,6,2,3,6,6,4,5,5,5,2,5,1,5,2,5,5,5,2,6,5,5,3,2,5,5,1,2,6,5,6,3,1,22,1,NA, 0, 2,"",1,"","Almost all questions were related to personality, behavior or attitude. So the hypothesis must be something from this field. I don't think it is specific to students alone","I think the questions were very well done as there were no leading questions, whatsoever. By the end of all the questions, I still am not sure what is the hypothesis being tested, which is a good thing as I cannot be biased now. I did notice one thing though, in the last few questions, there wee more negative options than positive ones. ( I don't know if that was by design but it was something that caught my eye )", 1,40.8006,-73.9653,-1,5,5,5,2,2,6,3,6,6,5,2,5,5,2,5,6,5,4.666667, 0.05176768,5,4,5,5,5,5,5,6,5,3,5,6,4.916667, 0.53914141,-0.25000000,4.791667,-0.48737374, 0.295454545,4,4,3,4,4,4,4,4,4,4,4,3,3.8, 0.14848485,4,4,3,4,4,3.8, 0.06060606, 0.0,3.8, 0.08787879, 0.104545455,5,6,6,5,7,6,5,7,6,6,6,7,5,7,6,6.1, 0.97575758,NA,"positive","proud",NA,NA,NA,NA,0,13,13,11,NA,NA,NA,NA,"up",0,0.5761139,"2016_Sep_30_1140",59.97535,"heterogeneity160929b",1,  202,14,-0.150,0.5761139,6.356305,202, 0.5, 576.1139,-1.176596930
202,"R_OIqeDfsqFxKQhfb","Default Response Set","Anonymous",NA,NA,"128.59.230.241",0,"9/30/16 11:28","9/30/16 11:39",1,1,202,109054,1,2,2,4,2,3,2,4,2,2,4,3,6,3,7,6,2,2,7,3,1,6,6,2,3,6,6,4,5,5,5,2,5,1,5,2,5,5,5,2,6,5,5,3,2,5,5,1,2,6,5,6,3,1,22,1,NA, 0, 2,"",1,"","Almost all questions were related to personality, behavior or attitude. So the hypothesis must be something from this field. I don't think it is specific to students alone","I think the questions were very well done as there were no leading questions, whatsoever. By the end of all the questions, I still am not sure what is the hypothesis being tested, which is a good thing as I cannot be biased now. I did notice one thing though, in the last few questions, there wee more negative options than positive ones. ( I don't know if that was by design but it was something that caught my eye )", 1,40.8006,-73.9653,-1,5,5,5,2,2,6,3,6,6,5,2,5,5,2,5,6,5,4.666667, 0.05176768,5,4,5,5,5,5,5,6,5,3,5,6,4.916667, 0.53914141,-0.25000000,4.791667,-0.48737374, 0.295454545,4,4,3,4,4,4,4,4,4,4,4,3,3.8, 0.14848485,4,4,3,4,4,3.8, 0.06060606, 0.0,3.8, 0.08787879, 0.104545455,5,6,6,5,7,6,5,7,6,6,6,7,5,7,6,6.1, 0.97575758,NA,"negative","tense",NA,NA,NA,NA,0,14,14,26,NA,NA,NA,NA,"up",0,0.8768480,"2016_Sep_30_1140",59.97535,"heterogeneity160929b",1,  202,15,-0.125,0.8768480,6.776334,202,-0.5, 876.8480,-0.331979580
202,"R_OIqeDfsqFxKQhfb","Default Response Set","Anonymous",NA,NA,"128.59.230.241",0,"9/30/16 11:28","9/30/16 11:39",1,1,202,109054,1,2,2,4,2,3,2,4,2,2,4,3,6,3,7,6,2,2,7,3,1,6,6,2,3,6,6,4,5,5,5,2,5,1,5,2,5,5,5,2,6,5,5,3,2,5,5,1,2,6,5,6,3,1,22,1,NA, 0, 2,"",1,"","Almost all questions were related to personality, behavior or attitude. So the hypothesis must be something from this field. I don't think it is specific to students alone","I think the questions were very well done as there were no leading questions, whatsoever. By the end of all the questions, I still am not sure what is the hypothesis being tested, which is a good thing as I cannot be biased now. I did notice one thing though, in the last few questions, there wee more negative options than positive ones. ( I don't know if that was by design but it was something that caught my eye )", 1,40.8006,-73.9653,-1,5,5,5,2,2,6,3,6,6,5,2,5,5,2,5,6,5,4.666667, 0.05176768,5,4,5,5,5,5,5,6,5,3,5,6,4.916667, 0.53914141,-0.25000000,4.791667,-0.48737374, 0.295454545,4,4,3,4,4,4,4,4,4,4,4,3,3.8, 0.14848485,4,4,3,4,4,3.8, 0.06060606, 0.0,3.8, 0.08787879, 0.104545455,5,6,6,5,7,6,5,7,6,6,6,7,5,7,6,6.1, 0.97575758,NA,"positive","orderly",NA,NA,NA,NA,0,15,15,14,NA,NA,NA,NA,"up",0,0.7929361,"2016_Sep_30_1140",59.97535,"heterogeneity160929b",1,  202,16,-0.100,0.7929361,6.675743,202, 0.5, 792.9361,-0.567647753
202,"R_OIqeDfsqFxKQhfb","Default Response Set","Anonymous",NA,NA,"128.59.230.241",0,"9/30/16 11:28","9/30/16 11:39",1,1,202,109054,1,2,2,4,2,3,2,4,2,2,4,3,6,3,7,6,2,2,7,3,1,6,6,2,3,6,6,4,5,5,5,2,5,1,5,2,5,5,5,2,6,5,5,3,2,5,5,1,2,6,5,6,3,1,22,1,NA, 0, 2,"",1,"","Almost all questions were related to personality, behavior or attitude. So the hypothesis must be something from this field. I don't think it is specific to students alone","I think the questions were very well done as there were no leading questions, whatsoever. By the end of all the questions, I still am not sure what is the hypothesis being tested, which is a good thing as I cannot be biased now. I did notice one thing though, in the last few questions, there wee more negative options than positive ones. ( I don't know if that was by design but it was something that caught my eye )", 1,40.8006,-73.9653,-1,5,5,5,2,2,6,3,6,6,5,2,5,5,2,5,6,5,4.666667, 0.05176768,5,4,5,5,5,5,5,6,5,3,5,6,4.916667, 0.53914141,-0.25000000,4.791667,-0.48737374, 0.295454545,4,4,3,4,4,4,4,4,4,4,4,3,3.8, 0.14848485,4,4,3,4,4,3.8, 0.06060606, 0.0,3.8, 0.08787879, 0.104545455,5,6,6,5,7,6,5,7,6,6,6,7,5,7,6,6.1, 0.97575758,NA,"positive","tidy",NA,NA,NA,NA,0,16,16, 4,NA,NA,NA,NA,"up",0,1.4442041,"2016_Sep_30_1140",59.97535,"heterogeneity160929b",1,  202,17,-0.075,1.4442041,7.275314,202, 0.5,1444.2041, 1.261450979
202,"R_OIqeDfsqFxKQhfb","Default Response Set","Anonymous",NA,NA,"128.59.230.241",0,"9/30/16 11:28","9/30/16 11:39",1,1,202,109054,1,2,2,4,2,3,2,4,2,2,4,3,6,3,7,6,2,2,7,3,1,6,6,2,3,6,6,4,5,5,5,2,5,1,5,2,5,5,5,2,6,5,5,3,2,5,5,1,2,6,5,6,3,1,22,1,NA, 0, 2,"",1,"","Almost all questions were related to personality, behavior or attitude. So the hypothesis must be something from this field. I don't think it is specific to students alone","I think the questions were very well done as there were no leading questions, whatsoever. By the end of all the questions, I still am not sure what is the hypothesis being tested, which is a good thing as I cannot be biased now. I did notice one thing though, in the last few questions, there wee more negative options than positive ones. ( I don't know if that was by design but it was something that caught my eye )", 1,40.8006,-73.9653,-1,5,5,5,2,2,6,3,6,6,5,2,5,5,2,5,6,5,4.666667, 0.05176768,5,4,5,5,5,5,5,6,5,3,5,6,4.916667, 0.53914141,-0.25000000,4.791667,-0.48737374, 0.295454545,4,4,3,4,4,4,4,4,4,4,4,3,3.8, 0.14848485,4,4,3,4,4,3.8, 0.06060606, 0.0,3.8, 0.08787879, 0.104545455,5,6,6,5,7,6,5,7,6,6,6,7,5,7,6,6.1, 0.97575758,NA,"positive","confident",NA,NA,NA,NA,0,17,17, 7,NA,NA,NA,NA,"up",0,0.5756059,"2016_Sep_30_1140",59.97535,"heterogeneity160929b",1,  202,18,-0.050,0.5756059,6.355423,202, 0.5, 575.6059,-1.178023855
202,"R_OIqeDfsqFxKQhfb","Default Response Set","Anonymous",NA,NA,"128.59.230.241",0,"9/30/16 11:28","9/30/16 11:39",1,1,202,109054,1,2,2,4,2,3,2,4,2,2,4,3,6,3,7,6,2,2,7,3,1,6,6,2,3,6,6,4,5,5,5,2,5,1,5,2,5,5,5,2,6,5,5,3,2,5,5,1,2,6,5,6,3,1,22,1,NA, 0, 2,"",1,"","Almost all questions were related to personality, behavior or attitude. So the hypothesis must be something from this field. I don't think it is specific to students alone","I think the questions were very well done as there were no leading questions, whatsoever. By the end of all the questions, I still am not sure what is the hypothesis being tested, which is a good thing as I cannot be biased now. I did notice one thing though, in the last few questions, there wee more negative options than positive ones. ( I don't know if that was by design but it was something that caught my eye )", 1,40.8006,-73.9653,-1,5,5,5,2,2,6,3,6,6,5,2,5,5,2,5,6,5,4.666667, 0.05176768,5,4,5,5,5,5,5,6,5,3,5,6,4.916667, 0.53914141,-0.25000000,4.791667,-0.48737374, 0.295454545,4,4,3,4,4,4,4,4,4,4,4,3,3.8, 0.14848485,4,4,3,4,4,3.8, 0.06060606, 0.0,3.8, 0.08787879, 0.104545455,5,6,6,5,7,6,5,7,6,6,6,7,5,7,6,6.1, 0.97575758,NA,"negative","moody",NA,NA,NA,NA,0,18,18,30,NA,NA,NA,NA,"up",0,0.8935320,"2016_Sep_30_1140",59.97535,"heterogeneity160929b",1,  202,19,-0.025,0.8935320,6.795182,202,-0.5, 893.5320,-0.285122088
202,"R_OIqeDfsqFxKQhfb","Default Response Set","Anonymous",NA,NA,"128.59.230.241",0,"9/30/16 11:28","9/30/16 11:39",1,1,202,109054,1,2,2,4,2,3,2,4,2,2,4,3,6,3,7,6,2,2,7,3,1,6,6,2,3,6,6,4,5,5,5,2,5,1,5,2,5,5,5,2,6,5,5,3,2,5,5,1,2,6,5,6,3,1,22,1,NA, 0, 2,"",1,"","Almost all questions were related to personality, behavior or attitude. So the hypothesis must be something from this field. I don't think it is specific to students alone","I think the questions were very well done as there were no leading questions, whatsoever. By the end of all the questions, I still am not sure what is the hypothesis being tested, which is a good thing as I cannot be biased now. I did notice one thing though, in the last few questions, there wee more negative options than positive ones. ( I don't know if that was by design but it was something that caught my eye )", 1,40.8006,-73.9653,-1,5,5,5,2,2,6,3,6,6,5,2,5,5,2,5,6,5,4.666667, 0.05176768,5,4,5,5,5,5,5,6,5,3,5,6,4.916667, 0.53914141,-0.25000000,4.791667,-0.48737374, 0.295454545,4,4,3,4,4,4,4,4,4,4,4,3,3.8, 0.14848485,4,4,3,4,4,3.8, 0.06060606, 0.0,3.8, 0.08787879, 0.104545455,5,6,6,5,7,6,5,7,6,6,6,7,5,7,6,6.1, 0.97575758,NA,"negative","boring",NA,NA,NA,NA,0,20,20,20,NA,NA,NA,NA,"up",0,1.1099029,"2016_Sep_30_1140",59.97535,"heterogeneity160929b",1,  202,21, 0.025,1.1099029,7.012028,202,-0.5,1109.9029, 0.322559529
202,"R_OIqeDfsqFxKQhfb","Default Response Set","Anonymous",NA,NA,"128.59.230.241",0,"9/30/16 11:28","9/30/16 11:39",1,1,202,109054,1,2,2,4,2,3,2,4,2,2,4,3,6,3,7,6,2,2,7,3,1,6,6,2,3,6,6,4,5,5,5,2,5,1,5,2,5,5,5,2,6,5,5,3,2,5,5,1,2,6,5,6,3,1,22,1,NA, 0, 2,"",1,"","Almost all questions were related to personality, behavior or attitude. So the hypothesis must be something from this field. I don't think it is specific to students alone","I think the questions were very well done as there were no leading questions, whatsoever. By the end of all the questions, I still am not sure what is the hypothesis being tested, which is a good thing as I cannot be biased now. I did notice one thing though, in the last few questions, there wee more negative options than positive ones. ( I don't know if that was by design but it was something that caught my eye )", 1,40.8006,-73.9653,-1,5,5,5,2,2,6,3,6,6,5,2,5,5,2,5,6,5,4.666667, 0.05176768,5,4,5,5,5,5,5,6,5,3,5,6,4.916667, 0.53914141,-0.25000000,4.791667,-0.48737374, 0.295454545,4,4,3,4,4,4,4,4,4,4,4,3,3.8, 0.14848485,4,4,3,4,4,3.8, 0.06060606, 0.0,3.8, 0.08787879, 0.104545455,5,6,6,5,7,6,5,7,6,6,6,7,5,7,6,6.1, 0.97575758,NA,"positive","ambitious",NA,NA,NA,NA,0,21,21,10,NA,NA,NA,NA,"up",0,0.7754600,"2016_Sep_30_1140",59.97535,"heterogeneity160929b",1,  202,22, 0.050,0.7754600,6.653456,202, 0.5, 775.4600,-0.616729666
202,"R_OIqeDfsqFxKQhfb","Default Response Set","Anonymous",NA,NA,"128.59.230.241",0,"9/30/16 11:28","9/30/16 11:39",1,1,202,109054,1,2,2,4,2,3,2,4,2,2,4,3,6,3,7,6,2,2,7,3,1,6,6,2,3,6,6,4,5,5,5,2,5,1,5,2,5,5,5,2,6,5,5,3,2,5,5,1,2,6,5,6,3,1,22,1,NA, 0, 2,"",1,"","Almost all questions were related to personality, behavior or attitude. So the hypothesis must be something from this field. I don't think it is specific to students alone","I think the questions were very well done as there were no leading questions, whatsoever. By the end of all the questions, I still am not sure what is the hypothesis being tested, which is a good thing as I cannot be biased now. I did notice one thing though, in the last few questions, there wee more negative options than positive ones. ( I don't know if that was by design but it was something that caught my eye )", 1,40.8006,-73.9653,-1,5,5,5,2,2,6,3,6,6,5,2,5,5,2,5,6,5,4.666667, 0.05176768,5,4,5,5,5,5,5,6,5,3,5,6,4.916667, 0.53914141,-0.25000000,4.791667,-0.48737374, 0.295454545,4,4,3,4,4,4,4,4,4,4,4,3,3.8, 0.14848485,4,4,3,4,4,3.8, 0.06060606, 0.0,3.8, 0.08787879, 0.104545455,5,6,6,5,7,6,5,7,6,6,6,7,5,7,6,6.1, 0.97575758,NA,"positive","enthusiastic",NA,NA,NA,NA,0,24,24,16,NA,NA,NA,NA,"up",0,1.3241532,"2016_Sep_30_1140",59.97535,"heterogeneity160929b",1,  202,25, 0.125,1.3241532,7.188528,202, 0.5,1324.1532, 0.924285695
202,"R_OIqeDfsqFxKQhfb","Default Response Set","Anonymous",NA,NA,"128.59.230.241",0,"9/30/16 11:28","9/30/16 11:39",1,1,202,109054,1,2,2,4,2,3,2,4,2,2,4,3,6,3,7,6,2,2,7,3,1,6,6,2,3,6,6,4,5,5,5,2,5,1,5,2,5,5,5,2,6,5,5,3,2,5,5,1,2,6,5,6,3,1,22,1,NA, 0, 2,"",1,"","Almost all questions were related to personality, behavior or attitude. So the hypothesis must be something from this field. I don't think it is specific to students alone","I think the questions were very well done as there were no leading questions, whatsoever. By the end of all the questions, I still am not sure what is the hypothesis being tested, which is a good thing as I cannot be biased now. I did notice one thing though, in the last few questions, there wee more negative options than positive ones. ( I don't know if that was by design but it was something that caught my eye )", 1,40.8006,-73.9653,-1,5,5,5,2,2,6,3,6,6,5,2,5,5,2,5,6,5,4.666667, 0.05176768,5,4,5,5,5,5,5,6,5,3,5,6,4.916667, 0.53914141,-0.25000000,4.791667,-0.48737374, 0.295454545,4,4,3,4,4,4,4,4,4,4,4,3,3.8, 0.14848485,4,4,3,4,4,3.8, 0.06060606, 0.0,3.8, 0.08787879, 0.104545455,5,6,6,5,7,6,5,7,6,6,6,7,5,7,6,6.1, 0.97575758,NA,"positive","wise",NA,NA,NA,NA,0,25,25,19,NA,NA,NA,NA,"up",0,1.3087389,"2016_Sep_30_1140",59.97535,"heterogeneity160929b",1,  202,26, 0.150,1.3087389,7.176819,202, 0.5,1308.7389, 0.880994511
202,"R_OIqeDfsqFxKQhfb","Default Response Set","Anonymous",NA,NA,"128.59.230.241",0,"9/30/16 11:28","9/30/16 11:39",1,1,202,109054,1,2,2,4,2,3,2,4,2,2,4,3,6,3,7,6,2,2,7,3,1,6,6,2,3,6,6,4,5,5,5,2,5,1,5,2,5,5,5,2,6,5,5,3,2,5,5,1,2,6,5,6,3,1,22,1,NA, 0, 2,"",1,"","Almost all questions were related to personality, behavior or attitude. So the hypothesis must be something from this field. I don't think it is specific to students alone","I think the questions were very well done as there were no leading questions, whatsoever. By the end of all the questions, I still am not sure what is the hypothesis being tested, which is a good thing as I cannot be biased now. I did notice one thing though, in the last few questions, there wee more negative options than positive ones. ( I don't know if that was by design but it was something that caught my eye )", 1,40.8006,-73.9653,-1,5,5,5,2,2,6,3,6,6,5,2,5,5,2,5,6,5,4.666667, 0.05176768,5,4,5,5,5,5,5,6,5,3,5,6,4.916667, 0.53914141,-0.25000000,4.791667,-0.48737374, 0.295454545,4,4,3,4,4,4,4,4,4,4,4,3,3.8, 0.14848485,4,4,3,4,4,3.8, 0.06060606, 0.0,3.8, 0.08787879, 0.104545455,5,6,6,5,7,6,5,7,6,6,6,7,5,7,6,6.1, 0.97575758,NA,"positive","outgoing",NA,NA,NA,NA,0,27,27,17,NA,NA,NA,NA,"up",0,0.6087730,"2016_Sep_30_1140",59.97535,"heterogeneity160929b",1,  202,28, 0.200,0.6087730,6.411445,202, 0.5, 608.7730,-1.084873348
202,"R_OIqeDfsqFxKQhfb","Default Response Set","Anonymous",NA,NA,"128.59.230.241",0,"9/30/16 11:28","9/30/16 11:39",1,1,202,109054,1,2,2,4,2,3,2,4,2,2,4,3,6,3,7,6,2,2,7,3,1,6,6,2,3,6,6,4,5,5,5,2,5,1,5,2,5,5,5,2,6,5,5,3,2,5,5,1,2,6,5,6,3,1,22,1,NA, 0, 2,"",1,"","Almost all questions were related to personality, behavior or attitude. So the hypothesis must be something from this field. I don't think it is specific to students alone","I think the questions were very well done as there were no leading questions, whatsoever. By the end of all the questions, I still am not sure what is the hypothesis being tested, which is a good thing as I cannot be biased now. I did notice one thing though, in the last few questions, there wee more negative options than positive ones. ( I don't know if that was by design but it was something that caught my eye )", 1,40.8006,-73.9653,-1,5,5,5,2,2,6,3,6,6,5,2,5,5,2,5,6,5,4.666667, 0.05176768,5,4,5,5,5,5,5,6,5,3,5,6,4.916667, 0.53914141,-0.25000000,4.791667,-0.48737374, 0.295454545,4,4,3,4,4,4,4,4,4,4,4,3,3.8, 0.14848485,4,4,3,4,4,3.8, 0.06060606, 0.0,3.8, 0.08787879, 0.104545455,5,6,6,5,7,6,5,7,6,6,6,7,5,7,6,6.1, 0.97575758,NA,"positive","neat",NA,NA,NA,NA,0,28,28, 5,NA,NA,NA,NA,"up",0,0.6110868,"2016_Sep_30_1140",59.97535,"heterogeneity160929b",1,  202,29, 0.225,0.6110868,6.415239,202, 0.5, 611.0868,-1.078374850
202,"R_OIqeDfsqFxKQhfb","Default Response Set","Anonymous",NA,NA,"128.59.230.241",0,"9/30/16 11:28","9/30/16 11:39",1,1,202,109054,1,2,2,4,2,3,2,4,2,2,4,3,6,3,7,6,2,2,7,3,1,6,6,2,3,6,6,4,5,5,5,2,5,1,5,2,5,5,5,2,6,5,5,3,2,5,5,1,2,6,5,6,3,1,22,1,NA, 0, 2,"",1,"","Almost all questions were related to personality, behavior or attitude. So the hypothesis must be something from this field. I don't think it is specific to students alone","I think the questions were very well done as there were no leading questions, whatsoever. By the end of all the questions, I still am not sure what is the hypothesis being tested, which is a good thing as I cannot be biased now. I did notice one thing though, in the last few questions, there wee more negative options than positive ones. ( I don't know if that was by design but it was something that caught my eye )", 1,40.8006,-73.9653,-1,5,5,5,2,2,6,3,6,6,5,2,5,5,2,5,6,5,4.666667, 0.05176768,5,4,5,5,5,5,5,6,5,3,5,6,4.916667, 0.53914141,-0.25000000,4.791667,-0.48737374, 0.295454545,4,4,3,4,4,4,4,4,4,4,4,3,3.8, 0.14848485,4,4,3,4,4,3.8, 0.06060606, 0.0,3.8, 0.08787879, 0.104545455,5,6,6,5,7,6,5,7,6,6,6,7,5,7,6,6.1, 0.97575758,NA,"negative","forgetful",NA,NA,NA,NA,0,30,30,31,NA,NA,NA,NA,"up",0,0.9926350,"2016_Sep_30_1140",59.97535,"heterogeneity160929b",1,  202,31, 0.275,0.9926350,6.900363,202,-0.5, 992.6350,-0.006789477
202,"R_OIqeDfsqFxKQhfb","Default Response Set","Anonymous",NA,NA,"128.59.230.241",0,"9/30/16 11:28","9/30/16 11:39",1,1,202,109054,1,2,2,4,2,3,2,4,2,2,4,3,6,3,7,6,2,2,7,3,1,6,6,2,3,6,6,4,5,5,5,2,5,1,5,2,5,5,5,2,6,5,5,3,2,5,5,1,2,6,5,6,3,1,22,1,NA, 0, 2,"",1,"","Almost all questions were related to personality, behavior or attitude. So the hypothesis must be something from this field. I don't think it is specific to students alone","I think the questions were very well done as there were no leading questions, whatsoever. By the end of all the questions, I still am not sure what is the hypothesis being tested, which is a good thing as I cannot be biased now. I did notice one thing though, in the last few questions, there wee more negative options than positive ones. ( I don't know if that was by design but it was something that caught my eye )", 1,40.8006,-73.9653,-1,5,5,5,2,2,6,3,6,6,5,2,5,5,2,5,6,5,4.666667, 0.05176768,5,4,5,5,5,5,5,6,5,3,5,6,4.916667, 0.53914141,-0.25000000,4.791667,-0.48737374, 0.295454545,4,4,3,4,4,4,4,4,4,4,4,3,3.8, 0.14848485,4,4,3,4,4,3.8, 0.06060606, 0.0,3.8, 0.08787879, 0.104545455,5,6,6,5,7,6,5,7,6,6,6,7,5,7,6,6.1, 0.97575758,NA,"negative","anxious",NA,NA,NA,NA,0,32,32,35,NA,NA,NA,NA,"up",0,0.9260020,"2016_Sep_30_1140",59.97535,"heterogeneity160929b",1,  202,33, 0.325,0.9260020,6.830876,202,-0.5, 926.0020,-0.193929501
202,"R_OIqeDfsqFxKQhfb","Default Response Set","Anonymous",NA,NA,"128.59.230.241",0,"9/30/16 11:28","9/30/16 11:39",1,1,202,109054,1,2,2,4,2,3,2,4,2,2,4,3,6,3,7,6,2,2,7,3,1,6,6,2,3,6,6,4,5,5,5,2,5,1,5,2,5,5,5,2,6,5,5,3,2,5,5,1,2,6,5,6,3,1,22,1,NA, 0, 2,"",1,"","Almost all questions were related to personality, behavior or attitude. So the hypothesis must be something from this field. I don't think it is specific to students alone","I think the questions were very well done as there were no leading questions, whatsoever. By the end of all the questions, I still am not sure what is the hypothesis being tested, which is a good thing as I cannot be biased now. I did notice one thing though, in the last few questions, there wee more negative options than positive ones. ( I don't know if that was by design but it was something that caught my eye )", 1,40.8006,-73.9653,-1,5,5,5,2,2,6,3,6,6,5,2,5,5,2,5,6,5,4.666667, 0.05176768,5,4,5,5,5,5,5,6,5,3,5,6,4.916667, 0.53914141,-0.25000000,4.791667,-0.48737374, 0.295454545,4,4,3,4,4,4,4,4,4,4,4,3,3.8, 0.14848485,4,4,3,4,4,3.8, 0.06060606, 0.0,3.8, 0.08787879, 0.104545455,5,6,6,5,7,6,5,7,6,6,6,7,5,7,6,6.1, 0.97575758,NA,"positive","tender",NA,NA,NA,NA,0,33,33, 6,NA,NA,NA,NA,"up",0,0.7928069,"2016_Sep_30_1140",59.97535,"heterogeneity160929b",1,  202,34, 0.350,0.7928069,6.675580,202, 0.5, 792.8069,-0.568010678
202,"R_OIqeDfsqFxKQhfb","Default Response Set","Anonymous",NA,NA,"128.59.230.241",0,"9/30/16 11:28","9/30/16 11:39",1,1,202,109054,1,2,2,4,2,3,2,4,2,2,4,3,6,3,7,6,2,2,7,3,1,6,6,2,3,6,6,4,5,5,5,2,5,1,5,2,5,5,5,2,6,5,5,3,2,5,5,1,2,6,5,6,3,1,22,1,NA, 0, 2,"",1,"","Almost all questions were related to personality, behavior or attitude. So the hypothesis must be something from this field. I don't think it is specific to students alone","I think the questions were very well done as there were no leading questions, whatsoever. By the end of all the questions, I still am not sure what is the hypothesis being tested, which is a good thing as I cannot be biased now. I did notice one thing though, in the last few questions, there wee more negative options than positive ones. ( I don't know if that was by design but it was something that caught my eye )", 1,40.8006,-73.9653,-1,5,5,5,2,2,6,3,6,6,5,2,5,5,2,5,6,5,4.666667, 0.05176768,5,4,5,5,5,5,5,6,5,3,5,6,4.916667, 0.53914141,-0.25000000,4.791667,-0.48737374, 0.295454545,4,4,3,4,4,4,4,4,4,4,4,3,3.8, 0.14848485,4,4,3,4,4,3.8, 0.06060606, 0.0,3.8, 0.08787879, 0.104545455,5,6,6,5,7,6,5,7,6,6,6,7,5,7,6,6.1, 0.97575758,NA,"positive","idealistic",NA,NA,NA,NA,0,34,34, 3,NA,NA,NA,NA,"up",0,0.7584829,"2016_Sep_30_1140",59.97535,"heterogeneity160929b",1,  202,35, 0.375,0.7584829,6.631320,202, 0.5, 758.4829,-0.664410099
202,"R_OIqeDfsqFxKQhfb","Default Response Set","Anonymous",NA,NA,"128.59.230.241",0,"9/30/16 11:28","9/30/16 11:39",1,1,202,109054,1,2,2,4,2,3,2,4,2,2,4,3,6,3,7,6,2,2,7,3,1,6,6,2,3,6,6,4,5,5,5,2,5,1,5,2,5,5,5,2,6,5,5,3,2,5,5,1,2,6,5,6,3,1,22,1,NA, 0, 2,"",1,"","Almost all questions were related to personality, behavior or attitude. So the hypothesis must be something from this field. I don't think it is specific to students alone","I think the questions were very well done as there were no leading questions, whatsoever. By the end of all the questions, I still am not sure what is the hypothesis being tested, which is a good thing as I cannot be biased now. I did notice one thing though, in the last few questions, there wee more negative options than positive ones. ( I don't know if that was by design but it was something that caught my eye )", 1,40.8006,-73.9653,-1,5,5,5,2,2,6,3,6,6,5,2,5,5,2,5,6,5,4.666667, 0.05176768,5,4,5,5,5,5,5,6,5,3,5,6,4.916667, 0.53914141,-0.25000000,4.791667,-0.48737374, 0.295454545,4,4,3,4,4,4,4,4,4,4,4,3,3.8, 0.14848485,4,4,3,4,4,3.8, 0.06060606, 0.0,3.8, 0.08787879, 0.104545455,5,6,6,5,7,6,5,7,6,6,6,7,5,7,6,6.1, 0.97575758,NA,"positive","brilliant",NA,NA,NA,NA,0,35,35,12,NA,NA,NA,NA,"up",0,0.5755599,"2016_Sep_30_1140",59.97535,"heterogeneity160929b",1,  202,36, 0.400,0.5755599,6.355343,202, 0.5, 575.5599,-1.178153086
202,"R_OIqeDfsqFxKQhfb","Default Response Set","Anonymous",NA,NA,"128.59.230.241",0,"9/30/16 11:28","9/30/16 11:39",1,1,202,109054,1,2,2,4,2,3,2,4,2,2,4,3,6,3,7,6,2,2,7,3,1,6,6,2,3,6,6,4,5,5,5,2,5,1,5,2,5,5,5,2,6,5,5,3,2,5,5,1,2,6,5,6,3,1,22,1,NA, 0, 2,"",1,"","Almost all questions were related to personality, behavior or attitude. So the hypothesis must be something from this field. I don't think it is specific to students alone","I think the questions were very well done as there were no leading questions, whatsoever. By the end of all the questions, I still am not sure what is the hypothesis being tested, which is a good thing as I cannot be biased now. I did notice one thing though, in the last few questions, there wee more negative options than positive ones. ( I don't know if that was by design but it was something that caught my eye )", 1,40.8006,-73.9653,-1,5,5,5,2,2,6,3,6,6,5,2,5,5,2,5,6,5,4.666667, 0.05176768,5,4,5,5,5,5,5,6,5,3,5,6,4.916667, 0.53914141,-0.25000000,4.791667,-0.48737374, 0.295454545,4,4,3,4,4,4,4,4,4,4,4,3,3.8, 0.14848485,4,4,3,4,4,3.8, 0.06060606, 0.0,3.8, 0.08787879, 0.104545455,5,6,6,5,7,6,5,7,6,6,6,7,5,7,6,6.1, 0.97575758,NA,"negative","cynical",NA,NA,NA,NA,0,36,36,37,NA,NA,NA,NA,"up",0,0.3930211,"2016_Sep_30_1140",59.97535,"heterogeneity160929b",1,  202,37, 0.425,0.3930211,5.973863,202,-0.5, 393.0211,-1.690816674
202,"R_OIqeDfsqFxKQhfb","Default Response Set","Anonymous",NA,NA,"128.59.230.241",0,"9/30/16 11:28","9/30/16 11:39",1,1,202,109054,1,2,2,4,2,3,2,4,2,2,4,3,6,3,7,6,2,2,7,3,1,6,6,2,3,6,6,4,5,5,5,2,5,1,5,2,5,5,5,2,6,5,5,3,2,5,5,1,2,6,5,6,3,1,22,1,NA, 0, 2,"",1,"","Almost all questions were related to personality, behavior or attitude. So the hypothesis must be something from this field. I don't think it is specific to students alone","I think the questions were very well done as there were no leading questions, whatsoever. By the end of all the questions, I still am not sure what is the hypothesis being tested, which is a good thing as I cannot be biased now. I did notice one thing though, in the last few questions, there wee more negative options than positive ones. ( I don't know if that was by design but it was something that caught my eye )", 1,40.8006,-73.9653,-1,5,5,5,2,2,6,3,6,6,5,2,5,5,2,5,6,5,4.666667, 0.05176768,5,4,5,5,5,5,5,6,5,3,5,6,4.916667, 0.53914141,-0.25000000,4.791667,-0.48737374, 0.295454545,4,4,3,4,4,4,4,4,4,4,4,3,3.8, 0.14848485,4,4,3,4,4,3.8, 0.06060606, 0.0,3.8, 0.08787879, 0.104545455,5,6,6,5,7,6,5,7,6,6,6,7,5,7,6,6.1, 0.97575758,NA,"negative","impulsive",NA,NA,NA,NA,0,39,39,21,NA,NA,NA,NA,"up",0,1.6421580,"2016_Sep_30_1140",59.97535,"heterogeneity160929b",1,  202,40, 0.500,1.6421580,7.403767,202,-0.5,1642.1580, 1.817408428
204,"R_xt4Vz2lQD0QrmjT","Default Response Set","Anonymous",NA,NA,"128.59.230.241",0,"9/30/16 11:54","9/30/16 12:02",1,1,204,108178,1,2,2,4,2,2,2,4,2,1,4,1,6,1,7,7,1,1,7,2,1,6,5,2,4,6,4,5,5,4,5,5,4,1,3,5,5,5,4,4,6,6,6,4,2,4,4,1,1,6,4,4,3,1,23,2,NA, 0, 2,"",1,"","Unfortunately, no.","The questions seemed fairly standard for a personality test; I have come across very similar questions with other personality typing tests. On the whole, I completed it with as much fidelity to myself as I could.", 1,40.8006,-73.9653,-1,5,2,6,4,3,5,4,6,4,4,4,5,6,3,4,6,4,4.583333,-0.03156566,5,5,5,5,2,4,5,6,6,4,6,4,4.750000, 0.37247475,-0.16666667,4.666667,-0.40404040, 0.170454545,4,5,5,4,4,4,4,4,4,5,4,5,4.4, 0.74848485,4,4,2,4,4,3.6,-0.13939394, 0.8,4.0, 0.88787879, 0.304545455,7,7,7,6,7,6,7,7,7,7,7,7,6,7,6,6.7, 1.57575758,NA,"positive","artistic",NA,NA,NA,NA,0, 0, 0, 9,NA,NA,NA,NA,"up",0,0.9761570,"2016_Sep_30_1202",60.00452,"heterogeneity160929b",1,  204, 1,-0.475,0.9761570,6.883623,204, 0.5, 976.1570,-0.053068431
204,"R_xt4Vz2lQD0QrmjT","Default Response Set","Anonymous",NA,NA,"128.59.230.241",0,"9/30/16 11:54","9/30/16 12:02",1,1,204,108178,1,2,2,4,2,2,2,4,2,1,4,1,6,1,7,7,1,1,7,2,1,6,5,2,4,6,4,5,5,4,5,5,4,1,3,5,5,5,4,4,6,6,6,4,2,4,4,1,1,6,4,4,3,1,23,2,NA, 0, 2,"",1,"","Unfortunately, no.","The questions seemed fairly standard for a personality test; I have come across very similar questions with other personality typing tests. On the whole, I completed it with as much fidelity to myself as I could.", 1,40.8006,-73.9653,-1,5,2,6,4,3,5,4,6,4,4,4,5,6,3,4,6,4,4.583333,-0.03156566,5,5,5,5,2,4,5,6,6,4,6,4,4.750000, 0.37247475,-0.16666667,4.666667,-0.40404040, 0.170454545,4,5,5,4,4,4,4,4,4,5,4,5,4.4, 0.74848485,4,4,2,4,4,3.6,-0.13939394, 0.8,4.0, 0.88787879, 0.304545455,7,7,7,6,7,6,7,7,7,7,7,7,6,7,6,6.7, 1.57575758,NA,"positive","neat",NA,NA,NA,NA,0, 2, 2, 5,NA,NA,NA,NA,"up",0,0.5941939,"2016_Sep_30_1202",60.00452,"heterogeneity160929b",1,  204, 3,-0.425,0.5941939,6.387206,204, 0.5, 594.1939,-1.125818913
204,"R_xt4Vz2lQD0QrmjT","Default Response Set","Anonymous",NA,NA,"128.59.230.241",0,"9/30/16 11:54","9/30/16 12:02",1,1,204,108178,1,2,2,4,2,2,2,4,2,1,4,1,6,1,7,7,1,1,7,2,1,6,5,2,4,6,4,5,5,4,5,5,4,1,3,5,5,5,4,4,6,6,6,4,2,4,4,1,1,6,4,4,3,1,23,2,NA, 0, 2,"",1,"","Unfortunately, no.","The questions seemed fairly standard for a personality test; I have come across very similar questions with other personality typing tests. On the whole, I completed it with as much fidelity to myself as I could.", 1,40.8006,-73.9653,-1,5,2,6,4,3,5,4,6,4,4,4,5,6,3,4,6,4,4.583333,-0.03156566,5,5,5,5,2,4,5,6,6,4,6,4,4.750000, 0.37247475,-0.16666667,4.666667,-0.40404040, 0.170454545,4,5,5,4,4,4,4,4,4,5,4,5,4.4, 0.74848485,4,4,2,4,4,3.6,-0.13939394, 0.8,4.0, 0.88787879, 0.304545455,7,7,7,6,7,6,7,7,7,7,7,7,6,7,6,6.7, 1.57575758,NA,"positive","thrifty",NA,NA,NA,NA,0, 4, 4, 2,NA,NA,NA,NA,"up",0,0.8096972,"2016_Sep_30_1202",60.00452,"heterogeneity160929b",1,  204, 5,-0.375,0.8096972,6.696660,204, 0.5, 809.6972,-0.520573982
204,"R_xt4Vz2lQD0QrmjT","Default Response Set","Anonymous",NA,NA,"128.59.230.241",0,"9/30/16 11:54","9/30/16 12:02",1,1,204,108178,1,2,2,4,2,2,2,4,2,1,4,1,6,1,7,7,1,1,7,2,1,6,5,2,4,6,4,5,5,4,5,5,4,1,3,5,5,5,4,4,6,6,6,4,2,4,4,1,1,6,4,4,3,1,23,2,NA, 0, 2,"",1,"","Unfortunately, no.","The questions seemed fairly standard for a personality test; I have come across very similar questions with other personality typing tests. On the whole, I completed it with as much fidelity to myself as I could.", 1,40.8006,-73.9653,-1,5,2,6,4,3,5,4,6,4,4,4,5,6,3,4,6,4,4.583333,-0.03156566,5,5,5,5,2,4,5,6,6,4,6,4,4.750000, 0.37247475,-0.16666667,4.666667,-0.40404040, 0.170454545,4,5,5,4,4,4,4,4,4,5,4,5,4.4, 0.74848485,4,4,2,4,4,3.6,-0.13939394, 0.8,4.0, 0.88787879, 0.304545455,7,7,7,6,7,6,7,7,7,7,7,7,6,7,6,6.7, 1.57575758,NA,"positive","ambitious",NA,NA,NA,NA,0, 5, 5,10,NA,NA,NA,NA,"up",0,0.5922132,"2016_Sep_30_1202",60.00452,"heterogeneity160929b",1,  204, 6,-0.350,0.5922132,6.383867,204, 0.5, 592.2132,-1.131381975
204,"R_xt4Vz2lQD0QrmjT","Default Response Set","Anonymous",NA,NA,"128.59.230.241",0,"9/30/16 11:54","9/30/16 12:02",1,1,204,108178,1,2,2,4,2,2,2,4,2,1,4,1,6,1,7,7,1,1,7,2,1,6,5,2,4,6,4,5,5,4,5,5,4,1,3,5,5,5,4,4,6,6,6,4,2,4,4,1,1,6,4,4,3,1,23,2,NA, 0, 2,"",1,"","Unfortunately, no.","The questions seemed fairly standard for a personality test; I have come across very similar questions with other personality typing tests. On the whole, I completed it with as much fidelity to myself as I could.", 1,40.8006,-73.9653,-1,5,2,6,4,3,5,4,6,4,4,4,5,6,3,4,6,4,4.583333,-0.03156566,5,5,5,5,2,4,5,6,6,4,6,4,4.750000, 0.37247475,-0.16666667,4.666667,-0.40404040, 0.170454545,4,5,5,4,4,4,4,4,4,5,4,5,4.4, 0.74848485,4,4,2,4,4,3.6,-0.13939394, 0.8,4.0, 0.88787879, 0.304545455,7,7,7,6,7,6,7,7,7,7,7,7,6,7,6,6.7, 1.57575758,NA,"positive","trusting",NA,NA,NA,NA,0, 6, 6, 8,NA,NA,NA,NA,"up",0,0.8091900,"2016_Sep_30_1202",60.00452,"heterogeneity160929b",1,  204, 7,-0.325,0.8091900,6.696034,204, 0.5, 809.1900,-0.521998227
204,"R_xt4Vz2lQD0QrmjT","Default Response Set","Anonymous",NA,NA,"128.59.230.241",0,"9/30/16 11:54","9/30/16 12:02",1,1,204,108178,1,2,2,4,2,2,2,4,2,1,4,1,6,1,7,7,1,1,7,2,1,6,5,2,4,6,4,5,5,4,5,5,4,1,3,5,5,5,4,4,6,6,6,4,2,4,4,1,1,6,4,4,3,1,23,2,NA, 0, 2,"",1,"","Unfortunately, no.","The questions seemed fairly standard for a personality test; I have come across very similar questions with other personality typing tests. On the whole, I completed it with as much fidelity to myself as I could.", 1,40.8006,-73.9653,-1,5,2,6,4,3,5,4,6,4,4,4,5,6,3,4,6,4,4.583333,-0.03156566,5,5,5,5,2,4,5,6,6,4,6,4,4.750000, 0.37247475,-0.16666667,4.666667,-0.40404040, 0.170454545,4,5,5,4,4,4,4,4,4,5,4,5,4.4, 0.74848485,4,4,2,4,4,3.6,-0.13939394, 0.8,4.0, 0.88787879, 0.304545455,7,7,7,6,7,6,7,7,7,7,7,7,6,7,6,6.7, 1.57575758,NA,"positive","proud",NA,NA,NA,NA,0, 8, 8,11,NA,NA,NA,NA,"up",0,0.9431050,"2016_Sep_30_1202",60.00452,"heterogeneity160929b",1,  204, 9,-0.275,0.9431050,6.849178,204, 0.5, 943.1050,-0.145895520
204,"R_xt4Vz2lQD0QrmjT","Default Response Set","Anonymous",NA,NA,"128.59.230.241",0,"9/30/16 11:54","9/30/16 12:02",1,1,204,108178,1,2,2,4,2,2,2,4,2,1,4,1,6,1,7,7,1,1,7,2,1,6,5,2,4,6,4,5,5,4,5,5,4,1,3,5,5,5,4,4,6,6,6,4,2,4,4,1,1,6,4,4,3,1,23,2,NA, 0, 2,"",1,"","Unfortunately, no.","The questions seemed fairly standard for a personality test; I have come across very similar questions with other personality typing tests. On the whole, I completed it with as much fidelity to myself as I could.", 1,40.8006,-73.9653,-1,5,2,6,4,3,5,4,6,4,4,4,5,6,3,4,6,4,4.583333,-0.03156566,5,5,5,5,2,4,5,6,6,4,6,4,4.750000, 0.37247475,-0.16666667,4.666667,-0.40404040, 0.170454545,4,5,5,4,4,4,4,4,4,5,4,5,4.4, 0.74848485,4,4,2,4,4,3.6,-0.13939394, 0.8,4.0, 0.88787879, 0.304545455,7,7,7,6,7,6,7,7,7,7,7,7,6,7,6,6.7, 1.57575758,NA,"positive","courageous",NA,NA,NA,NA,0,10,10,15,NA,NA,NA,NA,"up",0,1.0913248,"2016_Sep_30_1202",60.00452,"heterogeneity160929b",1,  204,11,-0.225,1.0913248,6.995148,204, 0.5,1091.3248, 0.270382710
204,"R_xt4Vz2lQD0QrmjT","Default Response Set","Anonymous",NA,NA,"128.59.230.241",0,"9/30/16 11:54","9/30/16 12:02",1,1,204,108178,1,2,2,4,2,2,2,4,2,1,4,1,6,1,7,7,1,1,7,2,1,6,5,2,4,6,4,5,5,4,5,5,4,1,3,5,5,5,4,4,6,6,6,4,2,4,4,1,1,6,4,4,3,1,23,2,NA, 0, 2,"",1,"","Unfortunately, no.","The questions seemed fairly standard for a personality test; I have come across very similar questions with other personality typing tests. On the whole, I completed it with as much fidelity to myself as I could.", 1,40.8006,-73.9653,-1,5,2,6,4,3,5,4,6,4,4,4,5,6,3,4,6,4,4.583333,-0.03156566,5,5,5,5,2,4,5,6,6,4,6,4,4.750000, 0.37247475,-0.16666667,4.666667,-0.40404040, 0.170454545,4,5,5,4,4,4,4,4,4,5,4,5,4.4, 0.74848485,4,4,2,4,4,3.6,-0.13939394, 0.8,4.0, 0.88787879, 0.304545455,7,7,7,6,7,6,7,7,7,7,7,7,6,7,6,6.7, 1.57575758,NA,"positive","tender",NA,NA,NA,NA,0,12,12, 6,NA,NA,NA,NA,"up",0,0.7099340,"2016_Sep_30_1202",60.00452,"heterogeneity160929b",1,  204,13,-0.175,0.7099340,6.565172,204, 0.5, 709.9340,-0.800760724
204,"R_xt4Vz2lQD0QrmjT","Default Response Set","Anonymous",NA,NA,"128.59.230.241",0,"9/30/16 11:54","9/30/16 12:02",1,1,204,108178,1,2,2,4,2,2,2,4,2,1,4,1,6,1,7,7,1,1,7,2,1,6,5,2,4,6,4,5,5,4,5,5,4,1,3,5,5,5,4,4,6,6,6,4,2,4,4,1,1,6,4,4,3,1,23,2,NA, 0, 2,"",1,"","Unfortunately, no.","The questions seemed fairly standard for a personality test; I have come across very similar questions with other personality typing tests. On the whole, I completed it with as much fidelity to myself as I could.", 1,40.8006,-73.9653,-1,5,2,6,4,3,5,4,6,4,4,4,5,6,3,4,6,4,4.583333,-0.03156566,5,5,5,5,2,4,5,6,6,4,6,4,4.750000, 0.37247475,-0.16666667,4.666667,-0.40404040, 0.170454545,4,5,5,4,4,4,4,4,4,5,4,5,4.4, 0.74848485,4,4,2,4,4,3.6,-0.13939394, 0.8,4.0, 0.88787879, 0.304545455,7,7,7,6,7,6,7,7,7,7,7,7,6,7,6,6.7, 1.57575758,NA,"positive","brilliant",NA,NA,NA,NA,0,22,22,12,NA,NA,NA,NA,"up",0,0.8589919,"2016_Sep_30_1202",60.00452,"heterogeneity160929b",1,  204,23, 0.075,0.8589919,6.755759,204, 0.5, 858.9919,-0.382128840
204,"R_xt4Vz2lQD0QrmjT","Default Response Set","Anonymous",NA,NA,"128.59.230.241",0,"9/30/16 11:54","9/30/16 12:02",1,1,204,108178,1,2,2,4,2,2,2,4,2,1,4,1,6,1,7,7,1,1,7,2,1,6,5,2,4,6,4,5,5,4,5,5,4,1,3,5,5,5,4,4,6,6,6,4,2,4,4,1,1,6,4,4,3,1,23,2,NA, 0, 2,"",1,"","Unfortunately, no.","The questions seemed fairly standard for a personality test; I have come across very similar questions with other personality typing tests. On the whole, I completed it with as much fidelity to myself as I could.", 1,40.8006,-73.9653,-1,5,2,6,4,3,5,4,6,4,4,4,5,6,3,4,6,4,4.583333,-0.03156566,5,5,5,5,2,4,5,6,6,4,6,4,4.750000, 0.37247475,-0.16666667,4.666667,-0.40404040, 0.170454545,4,5,5,4,4,4,4,4,4,5,4,5,4.4, 0.74848485,4,4,2,4,4,3.6,-0.13939394, 0.8,4.0, 0.88787879, 0.304545455,7,7,7,6,7,6,7,7,7,7,7,7,6,7,6,6.7, 1.57575758,NA,"positive","orderly",NA,NA,NA,NA,0,24,24,14,NA,NA,NA,NA,"up",0,0.7928591,"2016_Sep_30_1202",60.00452,"heterogeneity160929b",1,  204,25, 0.125,0.7928591,6.675645,204, 0.5, 792.8591,-0.567864037
204,"R_xt4Vz2lQD0QrmjT","Default Response Set","Anonymous",NA,NA,"128.59.230.241",0,"9/30/16 11:54","9/30/16 12:02",1,1,204,108178,1,2,2,4,2,2,2,4,2,1,4,1,6,1,7,7,1,1,7,2,1,6,5,2,4,6,4,5,5,4,5,5,4,1,3,5,5,5,4,4,6,6,6,4,2,4,4,1,1,6,4,4,3,1,23,2,NA, 0, 2,"",1,"","Unfortunately, no.","The questions seemed fairly standard for a personality test; I have come across very similar questions with other personality typing tests. On the whole, I completed it with as much fidelity to myself as I could.", 1,40.8006,-73.9653,-1,5,2,6,4,3,5,4,6,4,4,4,5,6,3,4,6,4,4.583333,-0.03156566,5,5,5,5,2,4,5,6,6,4,6,4,4.750000, 0.37247475,-0.16666667,4.666667,-0.40404040, 0.170454545,4,5,5,4,4,4,4,4,4,5,4,5,4.4, 0.74848485,4,4,2,4,4,3.6,-0.13939394, 0.8,4.0, 0.88787879, 0.304545455,7,7,7,6,7,6,7,7,7,7,7,7,6,7,6,6.7, 1.57575758,NA,"positive","persistent",NA,NA,NA,NA,0,26,26,13,NA,NA,NA,NA,"up",0,0.7564561,"2016_Sep_30_1202",60.00452,"heterogeneity160929b",1,  204,27, 0.175,0.7564561,6.628645,204, 0.5, 756.4561,-0.670102395
204,"R_xt4Vz2lQD0QrmjT","Default Response Set","Anonymous",NA,NA,"128.59.230.241",0,"9/30/16 11:54","9/30/16 12:02",1,1,204,108178,1,2,2,4,2,2,2,4,2,1,4,1,6,1,7,7,1,1,7,2,1,6,5,2,4,6,4,5,5,4,5,5,4,1,3,5,5,5,4,4,6,6,6,4,2,4,4,1,1,6,4,4,3,1,23,2,NA, 0, 2,"",1,"","Unfortunately, no.","The questions seemed fairly standard for a personality test; I have come across very similar questions with other personality typing tests. On the whole, I completed it with as much fidelity to myself as I could.", 1,40.8006,-73.9653,-1,5,2,6,4,3,5,4,6,4,4,4,5,6,3,4,6,4,4.583333,-0.03156566,5,5,5,5,2,4,5,6,6,4,6,4,4.750000, 0.37247475,-0.16666667,4.666667,-0.40404040, 0.170454545,4,5,5,4,4,4,4,4,4,5,4,5,4.4, 0.74848485,4,4,2,4,4,3.6,-0.13939394, 0.8,4.0, 0.88787879, 0.304545455,7,7,7,6,7,6,7,7,7,7,7,7,6,7,6,6.7, 1.57575758,NA,"negative","cynical",NA,NA,NA,NA,0,27,27,37,NA,NA,NA,NA,"up",0,0.9094188,"2016_Sep_30_1202",60.00452,"heterogeneity160929b",1,  204,28, 0.200,0.9094188,6.812806,204,-0.5, 909.4188,-0.240503752
204,"R_xt4Vz2lQD0QrmjT","Default Response Set","Anonymous",NA,NA,"128.59.230.241",0,"9/30/16 11:54","9/30/16 12:02",1,1,204,108178,1,2,2,4,2,2,2,4,2,1,4,1,6,1,7,7,1,1,7,2,1,6,5,2,4,6,4,5,5,4,5,5,4,1,3,5,5,5,4,4,6,6,6,4,2,4,4,1,1,6,4,4,3,1,23,2,NA, 0, 2,"",1,"","Unfortunately, no.","The questions seemed fairly standard for a personality test; I have come across very similar questions with other personality typing tests. On the whole, I completed it with as much fidelity to myself as I could.", 1,40.8006,-73.9653,-1,5,2,6,4,3,5,4,6,4,4,4,5,6,3,4,6,4,4.583333,-0.03156566,5,5,5,5,2,4,5,6,6,4,6,4,4.750000, 0.37247475,-0.16666667,4.666667,-0.40404040, 0.170454545,4,5,5,4,4,4,4,4,4,5,4,5,4.4, 0.74848485,4,4,2,4,4,3.6,-0.13939394, 0.8,4.0, 0.88787879, 0.304545455,7,7,7,6,7,6,7,7,7,7,7,7,6,7,6,6.7, 1.57575758,NA,"negative","stubborn",NA,NA,NA,NA,0,29,29,39,NA,NA,NA,NA,"up",0,0.7759669,"2016_Sep_30_1202",60.00452,"heterogeneity160929b",1,  204,30, 0.250,0.7759669,6.654110,204,-0.5, 775.9669,-0.615306089
204,"R_xt4Vz2lQD0QrmjT","Default Response Set","Anonymous",NA,NA,"128.59.230.241",0,"9/30/16 11:54","9/30/16 12:02",1,1,204,108178,1,2,2,4,2,2,2,4,2,1,4,1,6,1,7,7,1,1,7,2,1,6,5,2,4,6,4,5,5,4,5,5,4,1,3,5,5,5,4,4,6,6,6,4,2,4,4,1,1,6,4,4,3,1,23,2,NA, 0, 2,"",1,"","Unfortunately, no.","The questions seemed fairly standard for a personality test; I have come across very similar questions with other personality typing tests. On the whole, I completed it with as much fidelity to myself as I could.", 1,40.8006,-73.9653,-1,5,2,6,4,3,5,4,6,4,4,4,5,6,3,4,6,4,4.583333,-0.03156566,5,5,5,5,2,4,5,6,6,4,6,4,4.750000, 0.37247475,-0.16666667,4.666667,-0.40404040, 0.170454545,4,5,5,4,4,4,4,4,4,5,4,5,4.4, 0.74848485,4,4,2,4,4,3.6,-0.13939394, 0.8,4.0, 0.88787879, 0.304545455,7,7,7,6,7,6,7,7,7,7,7,7,6,7,6,6.7, 1.57575758,NA,"positive","wise",NA,NA,NA,NA,0,31,31,19,NA,NA,NA,NA,"up",0,0.5610158,"2016_Sep_30_1202",60.00452,"heterogeneity160929b",1,  204,32, 0.300,0.5610158,6.329749,204, 0.5, 561.0158,-1.219000221
204,"R_xt4Vz2lQD0QrmjT","Default Response Set","Anonymous",NA,NA,"128.59.230.241",0,"9/30/16 11:54","9/30/16 12:02",1,1,204,108178,1,2,2,4,2,2,2,4,2,1,4,1,6,1,7,7,1,1,7,2,1,6,5,2,4,6,4,5,5,4,5,5,4,1,3,5,5,5,4,4,6,6,6,4,2,4,4,1,1,6,4,4,3,1,23,2,NA, 0, 2,"",1,"","Unfortunately, no.","The questions seemed fairly standard for a personality test; I have come across very similar questions with other personality typing tests. On the whole, I completed it with as much fidelity to myself as I could.", 1,40.8006,-73.9653,-1,5,2,6,4,3,5,4,6,4,4,4,5,6,3,4,6,4,4.583333,-0.03156566,5,5,5,5,2,4,5,6,6,4,6,4,4.750000, 0.37247475,-0.16666667,4.666667,-0.40404040, 0.170454545,4,5,5,4,4,4,4,4,4,5,4,5,4.4, 0.74848485,4,4,2,4,4,3.6,-0.13939394, 0.8,4.0, 0.88787879, 0.304545455,7,7,7,6,7,6,7,7,7,7,7,7,6,7,6,6.7, 1.57575758,NA,"positive","disciplined",NA,NA,NA,NA,0,33,33, 1,NA,NA,NA,NA,"up",0,0.6249659,"2016_Sep_30_1202",60.00452,"heterogeneity160929b",1,  204,34, 0.350,0.6249659,6.437697,204, 0.5, 624.9659,-1.039395240
204,"R_xt4Vz2lQD0QrmjT","Default Response Set","Anonymous",NA,NA,"128.59.230.241",0,"9/30/16 11:54","9/30/16 12:02",1,1,204,108178,1,2,2,4,2,2,2,4,2,1,4,1,6,1,7,7,1,1,7,2,1,6,5,2,4,6,4,5,5,4,5,5,4,1,3,5,5,5,4,4,6,6,6,4,2,4,4,1,1,6,4,4,3,1,23,2,NA, 0, 2,"",1,"","Unfortunately, no.","The questions seemed fairly standard for a personality test; I have come across very similar questions with other personality typing tests. On the whole, I completed it with as much fidelity to myself as I could.", 1,40.8006,-73.9653,-1,5,2,6,4,3,5,4,6,4,4,4,5,6,3,4,6,4,4.583333,-0.03156566,5,5,5,5,2,4,5,6,6,4,6,4,4.750000, 0.37247475,-0.16666667,4.666667,-0.40404040, 0.170454545,4,5,5,4,4,4,4,4,4,5,4,5,4.4, 0.74848485,4,4,2,4,4,3.6,-0.13939394, 0.8,4.0, 0.88787879, 0.304545455,7,7,7,6,7,6,7,7,7,7,7,7,6,7,6,6.7, 1.57575758,NA,"positive","tidy",NA,NA,NA,NA,0,34,34, 4,NA,NA,NA,NA,"up",0,0.7276070,"2016_Sep_30_1202",60.00452,"heterogeneity160929b",1,  204,35, 0.375,0.7276070,6.589761,204, 0.5, 727.6070,-0.751125718
204,"R_xt4Vz2lQD0QrmjT","Default Response Set","Anonymous",NA,NA,"128.59.230.241",0,"9/30/16 11:54","9/30/16 12:02",1,1,204,108178,1,2,2,4,2,2,2,4,2,1,4,1,6,1,7,7,1,1,7,2,1,6,5,2,4,6,4,5,5,4,5,5,4,1,3,5,5,5,4,4,6,6,6,4,2,4,4,1,1,6,4,4,3,1,23,2,NA, 0, 2,"",1,"","Unfortunately, no.","The questions seemed fairly standard for a personality test; I have come across very similar questions with other personality typing tests. On the whole, I completed it with as much fidelity to myself as I could.", 1,40.8006,-73.9653,-1,5,2,6,4,3,5,4,6,4,4,4,5,6,3,4,6,4,4.583333,-0.03156566,5,5,5,5,2,4,5,6,6,4,6,4,4.750000, 0.37247475,-0.16666667,4.666667,-0.40404040, 0.170454545,4,5,5,4,4,4,4,4,4,5,4,5,4.4, 0.74848485,4,4,2,4,4,3.6,-0.13939394, 0.8,4.0, 0.88787879, 0.304545455,7,7,7,6,7,6,7,7,7,7,7,7,6,7,6,6.7, 1.57575758,NA,"negative","worrying",NA,NA,NA,NA,0,35,35,32,NA,NA,NA,NA,"up",0,0.9091249,"2016_Sep_30_1202",60.00452,"heterogeneity160929b",1,  204,36, 0.400,0.9091249,6.812482,204,-0.5, 909.1249,-0.241329372
204,"R_xt4Vz2lQD0QrmjT","Default Response Set","Anonymous",NA,NA,"128.59.230.241",0,"9/30/16 11:54","9/30/16 12:02",1,1,204,108178,1,2,2,4,2,2,2,4,2,1,4,1,6,1,7,7,1,1,7,2,1,6,5,2,4,6,4,5,5,4,5,5,4,1,3,5,5,5,4,4,6,6,6,4,2,4,4,1,1,6,4,4,3,1,23,2,NA, 0, 2,"",1,"","Unfortunately, no.","The questions seemed fairly standard for a personality test; I have come across very similar questions with other personality typing tests. On the whole, I completed it with as much fidelity to myself as I could.", 1,40.8006,-73.9653,-1,5,2,6,4,3,5,4,6,4,4,4,5,6,3,4,6,4,4.583333,-0.03156566,5,5,5,5,2,4,5,6,6,4,6,4,4.750000, 0.37247475,-0.16666667,4.666667,-0.40404040, 0.170454545,4,5,5,4,4,4,4,4,4,5,4,5,4.4, 0.74848485,4,4,2,4,4,3.6,-0.13939394, 0.8,4.0, 0.88787879, 0.304545455,7,7,7,6,7,6,7,7,7,7,7,7,6,7,6,6.7, 1.57575758,NA,"positive","talented",NA,NA,NA,NA,0,36,36, 0,NA,NA,NA,NA,"up",0,0.6425631,"2016_Sep_30_1202",60.00452,"heterogeneity160929b",1,  204,37, 0.425,0.6425631,6.465465,204, 0.5, 642.5631,-0.989973168
204,"R_xt4Vz2lQD0QrmjT","Default Response Set","Anonymous",NA,NA,"128.59.230.241",0,"9/30/16 11:54","9/30/16 12:02",1,1,204,108178,1,2,2,4,2,2,2,4,2,1,4,1,6,1,7,7,1,1,7,2,1,6,5,2,4,6,4,5,5,4,5,5,4,1,3,5,5,5,4,4,6,6,6,4,2,4,4,1,1,6,4,4,3,1,23,2,NA, 0, 2,"",1,"","Unfortunately, no.","The questions seemed fairly standard for a personality test; I have come across very similar questions with other personality typing tests. On the whole, I completed it with as much fidelity to myself as I could.", 1,40.8006,-73.9653,-1,5,2,6,4,3,5,4,6,4,4,4,5,6,3,4,6,4,4.583333,-0.03156566,5,5,5,5,2,4,5,6,6,4,6,4,4.750000, 0.37247475,-0.16666667,4.666667,-0.40404040, 0.170454545,4,5,5,4,4,4,4,4,4,5,4,5,4.4, 0.74848485,4,4,2,4,4,3.6,-0.13939394, 0.8,4.0, 0.88787879, 0.304545455,7,7,7,6,7,6,7,7,7,7,7,7,6,7,6,6.7, 1.57575758,NA,"positive","confident",NA,NA,NA,NA,0,37,37, 7,NA,NA,NA,NA,"up",0,1.0420551,"2016_Sep_30_1202",60.00452,"heterogeneity160929b",1,  204,38, 0.450,1.0420551,6.948950,204, 0.5,1042.0551, 0.132007876
204,"R_xt4Vz2lQD0QrmjT","Default Response Set","Anonymous",NA,NA,"128.59.230.241",0,"9/30/16 11:54","9/30/16 12:02",1,1,204,108178,1,2,2,4,2,2,2,4,2,1,4,1,6,1,7,7,1,1,7,2,1,6,5,2,4,6,4,5,5,4,5,5,4,1,3,5,5,5,4,4,6,6,6,4,2,4,4,1,1,6,4,4,3,1,23,2,NA, 0, 2,"",1,"","Unfortunately, no.","The questions seemed fairly standard for a personality test; I have come across very similar questions with other personality typing tests. On the whole, I completed it with as much fidelity to myself as I could.", 1,40.8006,-73.9653,-1,5,2,6,4,3,5,4,6,4,4,4,5,6,3,4,6,4,4.583333,-0.03156566,5,5,5,5,2,4,5,6,6,4,6,4,4.750000, 0.37247475,-0.16666667,4.666667,-0.40404040, 0.170454545,4,5,5,4,4,4,4,4,4,5,4,5,4.4, 0.74848485,4,4,2,4,4,3.6,-0.13939394, 0.8,4.0, 0.88787879, 0.304545455,7,7,7,6,7,6,7,7,7,7,7,7,6,7,6,6.7, 1.57575758,NA,"positive","idealistic",NA,NA,NA,NA,0,39,39, 3,NA,NA,NA,NA,"up",0,0.6747780,"2016_Sep_30_1202",60.00452,"heterogeneity160929b",1,  204,40, 0.500,0.6747780,6.514384,204, 0.5, 674.7780,-0.899497057
205,"R_yluFgRU6psBBJnz","Default Response Set","Anonymous",NA,NA,"128.59.230.241",0,"9/30/16 12:08","9/30/16 12:14",1,1,205,105139,1,1,4,4,4,2,3,3,4,2,4,2,5,2,6,6,2,2,6,2,3,6,6,1,5,5,5,5,6,6,3,3,4,3,2,3,5,5,4,3,5,3,6,4,3,1,5,3,1,5,6,5,3,1,18,2,NA, 0, 5,"",6,"In a relationship","No","No, it was interesting to evaluate myself. ", 1,40.8006,-73.9653,-1,6,4,6,5,6,6,5,5,5,6,5,5,6,6,5,5,6,5.416667, 0.80176768,6,5,6,3,4,4,5,5,3,4,6,5,4.666667, 0.28914141, 0.75000000,5.041667, 0.51262626, 0.545454545,5,4,4,2,2,3,2,5,4,4,4,4,4.2, 0.54848485,2,2,2,3,2,2.2,-1.53939394, 2.0,3.2, 2.08787879,-0.495454545,6,6,6,6,5,5,6,6,6,6,6,6,6,5,6,5.8, 0.67575758,NA,"positive","courageous",NA,NA,NA,NA,0, 0, 0,15,NA,NA,NA,NA,"up",0,0.5918319,"2016_Sep_30_1215",59.98444,"heterogeneity160929b",1,  205, 1,-0.475,0.5918319,6.383223,205, 0.5, 591.8319,-1.132452670
205,"R_yluFgRU6psBBJnz","Default Response Set","Anonymous",NA,NA,"128.59.230.241",0,"9/30/16 12:08","9/30/16 12:14",1,1,205,105139,1,1,4,4,4,2,3,3,4,2,4,2,5,2,6,6,2,2,6,2,3,6,6,1,5,5,5,5,6,6,3,3,4,3,2,3,5,5,4,3,5,3,6,4,3,1,5,3,1,5,6,5,3,1,18,2,NA, 0, 5,"",6,"In a relationship","No","No, it was interesting to evaluate myself. ", 1,40.8006,-73.9653,-1,6,4,6,5,6,6,5,5,5,6,5,5,6,6,5,5,6,5.416667, 0.80176768,6,5,6,3,4,4,5,5,3,4,6,5,4.666667, 0.28914141, 0.75000000,5.041667, 0.51262626, 0.545454545,5,4,4,2,2,3,2,5,4,4,4,4,4.2, 0.54848485,2,2,2,3,2,2.2,-1.53939394, 2.0,3.2, 2.08787879,-0.495454545,6,6,6,6,5,5,6,6,6,6,6,6,6,5,6,5.8, 0.67575758,NA,"positive","persistent",NA,NA,NA,NA,0, 1, 1,13,NA,NA,NA,NA,"up",0,0.9915349,"2016_Sep_30_1215",59.98444,"heterogeneity160929b",1,  205, 2,-0.450,0.9915349,6.899254,205, 0.5, 991.5349,-0.009879028
205,"R_yluFgRU6psBBJnz","Default Response Set","Anonymous",NA,NA,"128.59.230.241",0,"9/30/16 12:08","9/30/16 12:14",1,1,205,105139,1,1,4,4,4,2,3,3,4,2,4,2,5,2,6,6,2,2,6,2,3,6,6,1,5,5,5,5,6,6,3,3,4,3,2,3,5,5,4,3,5,3,6,4,3,1,5,3,1,5,6,5,3,1,18,2,NA, 0, 5,"",6,"In a relationship","No","No, it was interesting to evaluate myself. ", 1,40.8006,-73.9653,-1,6,4,6,5,6,6,5,5,5,6,5,5,6,6,5,5,6,5.416667, 0.80176768,6,5,6,3,4,4,5,5,3,4,6,5,4.666667, 0.28914141, 0.75000000,5.041667, 0.51262626, 0.545454545,5,4,4,2,2,3,2,5,4,4,4,4,4.2, 0.54848485,2,2,2,3,2,2.2,-1.53939394, 2.0,3.2, 2.08787879,-0.495454545,6,6,6,6,5,5,6,6,6,6,6,6,6,5,6,5.8, 0.67575758,NA,"positive","idealistic",NA,NA,NA,NA,0, 3, 3, 3,NA,NA,NA,NA,"up",0,0.8086619,"2016_Sep_30_1215",59.98444,"heterogeneity160929b",1,  205, 4,-0.400,0.8086619,6.695381,205, 0.5, 808.6619,-0.523481398
205,"R_yluFgRU6psBBJnz","Default Response Set","Anonymous",NA,NA,"128.59.230.241",0,"9/30/16 12:08","9/30/16 12:14",1,1,205,105139,1,1,4,4,4,2,3,3,4,2,4,2,5,2,6,6,2,2,6,2,3,6,6,1,5,5,5,5,6,6,3,3,4,3,2,3,5,5,4,3,5,3,6,4,3,1,5,3,1,5,6,5,3,1,18,2,NA, 0, 5,"",6,"In a relationship","No","No, it was interesting to evaluate myself. ", 1,40.8006,-73.9653,-1,6,4,6,5,6,6,5,5,5,6,5,5,6,6,5,5,6,5.416667, 0.80176768,6,5,6,3,4,4,5,5,3,4,6,5,4.666667, 0.28914141, 0.75000000,5.041667, 0.51262626, 0.545454545,5,4,4,2,2,3,2,5,4,4,4,4,4.2, 0.54848485,2,2,2,3,2,2.2,-1.53939394, 2.0,3.2, 2.08787879,-0.495454545,6,6,6,6,5,5,6,6,6,6,6,6,6,5,6,5.8, 0.67575758,NA,"negative","messy",NA,NA,NA,NA,0, 4, 4,36,NA,NA,NA,NA,"up",0,0.9102988,"2016_Sep_30_1215",59.98444,"heterogeneity160929b",1,  205, 5,-0.375,0.9102988,6.813773,205,-0.5, 910.2988,-0.238032246
205,"R_yluFgRU6psBBJnz","Default Response Set","Anonymous",NA,NA,"128.59.230.241",0,"9/30/16 12:08","9/30/16 12:14",1,1,205,105139,1,1,4,4,4,2,3,3,4,2,4,2,5,2,6,6,2,2,6,2,3,6,6,1,5,5,5,5,6,6,3,3,4,3,2,3,5,5,4,3,5,3,6,4,3,1,5,3,1,5,6,5,3,1,18,2,NA, 0, 5,"",6,"In a relationship","No","No, it was interesting to evaluate myself. ", 1,40.8006,-73.9653,-1,6,4,6,5,6,6,5,5,5,6,5,5,6,6,5,5,6,5.416667, 0.80176768,6,5,6,3,4,4,5,5,3,4,6,5,4.666667, 0.28914141, 0.75000000,5.041667, 0.51262626, 0.545454545,5,4,4,2,2,3,2,5,4,4,4,4,4.2, 0.54848485,2,2,2,3,2,2.2,-1.53939394, 2.0,3.2, 2.08787879,-0.495454545,6,6,6,6,5,5,6,6,6,6,6,6,6,5,6,5.8, 0.67575758,NA,"positive","wise",NA,NA,NA,NA,0, 7, 7,19,NA,NA,NA,NA,"up",0,0.6939540,"2016_Sep_30_1215",59.98444,"heterogeneity160929b",1,  205, 8,-0.300,0.6939540,6.542406,205, 0.5, 693.9540,-0.845640875
205,"R_yluFgRU6psBBJnz","Default Response Set","Anonymous",NA,NA,"128.59.230.241",0,"9/30/16 12:08","9/30/16 12:14",1,1,205,105139,1,1,4,4,4,2,3,3,4,2,4,2,5,2,6,6,2,2,6,2,3,6,6,1,5,5,5,5,6,6,3,3,4,3,2,3,5,5,4,3,5,3,6,4,3,1,5,3,1,5,6,5,3,1,18,2,NA, 0, 5,"",6,"In a relationship","No","No, it was interesting to evaluate myself. ", 1,40.8006,-73.9653,-1,6,4,6,5,6,6,5,5,5,6,5,5,6,6,5,5,6,5.416667, 0.80176768,6,5,6,3,4,4,5,5,3,4,6,5,4.666667, 0.28914141, 0.75000000,5.041667, 0.51262626, 0.545454545,5,4,4,2,2,3,2,5,4,4,4,4,4.2, 0.54848485,2,2,2,3,2,2.2,-1.53939394, 2.0,3.2, 2.08787879,-0.495454545,6,6,6,6,5,5,6,6,6,6,6,6,6,5,6,5.8, 0.67575758,NA,"positive","enthusiastic",NA,NA,NA,NA,0, 8, 8,16,NA,NA,NA,NA,"up",0,0.6244199,"2016_Sep_30_1215",59.98444,"heterogeneity160929b",1,  205, 9,-0.275,0.6244199,6.436823,205, 0.5, 624.4199,-1.040928630
205,"R_yluFgRU6psBBJnz","Default Response Set","Anonymous",NA,NA,"128.59.230.241",0,"9/30/16 12:08","9/30/16 12:14",1,1,205,105139,1,1,4,4,4,2,3,3,4,2,4,2,5,2,6,6,2,2,6,2,3,6,6,1,5,5,5,5,6,6,3,3,4,3,2,3,5,5,4,3,5,3,6,4,3,1,5,3,1,5,6,5,3,1,18,2,NA, 0, 5,"",6,"In a relationship","No","No, it was interesting to evaluate myself. ", 1,40.8006,-73.9653,-1,6,4,6,5,6,6,5,5,5,6,5,5,6,6,5,5,6,5.416667, 0.80176768,6,5,6,3,4,4,5,5,3,4,6,5,4.666667, 0.28914141, 0.75000000,5.041667, 0.51262626, 0.545454545,5,4,4,2,2,3,2,5,4,4,4,4,4.2, 0.54848485,2,2,2,3,2,2.2,-1.53939394, 2.0,3.2, 2.08787879,-0.495454545,6,6,6,6,5,5,6,6,6,6,6,6,6,5,6,5.8, 0.67575758,NA,"positive","proud",NA,NA,NA,NA,0, 9, 9,11,NA,NA,NA,NA,"up",0,0.4936781,"2016_Sep_30_1215",59.98444,"heterogeneity160929b",1,  205,10,-0.250,0.4936781,6.201884,205, 0.5, 493.6781,-1.408119591
205,"R_yluFgRU6psBBJnz","Default Response Set","Anonymous",NA,NA,"128.59.230.241",0,"9/30/16 12:08","9/30/16 12:14",1,1,205,105139,1,1,4,4,4,2,3,3,4,2,4,2,5,2,6,6,2,2,6,2,3,6,6,1,5,5,5,5,6,6,3,3,4,3,2,3,5,5,4,3,5,3,6,4,3,1,5,3,1,5,6,5,3,1,18,2,NA, 0, 5,"",6,"In a relationship","No","No, it was interesting to evaluate myself. ", 1,40.8006,-73.9653,-1,6,4,6,5,6,6,5,5,5,6,5,5,6,6,5,5,6,5.416667, 0.80176768,6,5,6,3,4,4,5,5,3,4,6,5,4.666667, 0.28914141, 0.75000000,5.041667, 0.51262626, 0.545454545,5,4,4,2,2,3,2,5,4,4,4,4,4.2, 0.54848485,2,2,2,3,2,2.2,-1.53939394, 2.0,3.2, 2.08787879,-0.495454545,6,6,6,6,5,5,6,6,6,6,6,6,6,5,6,5.8, 0.67575758,NA,"positive","trusting",NA,NA,NA,NA,0,11,11, 8,NA,NA,NA,NA,"up",0,0.5919960,"2016_Sep_30_1215",59.98444,"heterogeneity160929b",1,  205,12,-0.200,0.5919960,6.383500,205, 0.5, 591.9960,-1.131991983
205,"R_yluFgRU6psBBJnz","Default Response Set","Anonymous",NA,NA,"128.59.230.241",0,"9/30/16 12:08","9/30/16 12:14",1,1,205,105139,1,1,4,4,4,2,3,3,4,2,4,2,5,2,6,6,2,2,6,2,3,6,6,1,5,5,5,5,6,6,3,3,4,3,2,3,5,5,4,3,5,3,6,4,3,1,5,3,1,5,6,5,3,1,18,2,NA, 0, 5,"",6,"In a relationship","No","No, it was interesting to evaluate myself. ", 1,40.8006,-73.9653,-1,6,4,6,5,6,6,5,5,5,6,5,5,6,6,5,5,6,5.416667, 0.80176768,6,5,6,3,4,4,5,5,3,4,6,5,4.666667, 0.28914141, 0.75000000,5.041667, 0.51262626, 0.545454545,5,4,4,2,2,3,2,5,4,4,4,4,4.2, 0.54848485,2,2,2,3,2,2.2,-1.53939394, 2.0,3.2, 2.08787879,-0.495454545,6,6,6,6,5,5,6,6,6,6,6,6,6,5,6,5.8, 0.67575758,NA,"positive","brilliant",NA,NA,NA,NA,0,13,13,12,NA,NA,NA,NA,"up",0,0.5584509,"2016_Sep_30_1215",59.98444,"heterogeneity160929b",1,  205,14,-0.150,0.5584509,6.325167,205, 0.5, 558.4509,-1.226203811
205,"R_yluFgRU6psBBJnz","Default Response Set","Anonymous",NA,NA,"128.59.230.241",0,"9/30/16 12:08","9/30/16 12:14",1,1,205,105139,1,1,4,4,4,2,3,3,4,2,4,2,5,2,6,6,2,2,6,2,3,6,6,1,5,5,5,5,6,6,3,3,4,3,2,3,5,5,4,3,5,3,6,4,3,1,5,3,1,5,6,5,3,1,18,2,NA, 0, 5,"",6,"In a relationship","No","No, it was interesting to evaluate myself. ", 1,40.8006,-73.9653,-1,6,4,6,5,6,6,5,5,5,6,5,5,6,6,5,5,6,5.416667, 0.80176768,6,5,6,3,4,4,5,5,3,4,6,5,4.666667, 0.28914141, 0.75000000,5.041667, 0.51262626, 0.545454545,5,4,4,2,2,3,2,5,4,4,4,4,4.2, 0.54848485,2,2,2,3,2,2.2,-1.53939394, 2.0,3.2, 2.08787879,-0.495454545,6,6,6,6,5,5,6,6,6,6,6,6,6,5,6,5.8, 0.67575758,NA,"positive","artistic",NA,NA,NA,NA,0,14,14, 9,NA,NA,NA,NA,"up",0,0.6592350,"2016_Sep_30_1215",59.98444,"heterogeneity160929b",1,  205,15,-0.125,0.6592350,6.491080,205, 0.5, 659.2350,-0.943149827
205,"R_yluFgRU6psBBJnz","Default Response Set","Anonymous",NA,NA,"128.59.230.241",0,"9/30/16 12:08","9/30/16 12:14",1,1,205,105139,1,1,4,4,4,2,3,3,4,2,4,2,5,2,6,6,2,2,6,2,3,6,6,1,5,5,5,5,6,6,3,3,4,3,2,3,5,5,4,3,5,3,6,4,3,1,5,3,1,5,6,5,3,1,18,2,NA, 0, 5,"",6,"In a relationship","No","No, it was interesting to evaluate myself. ", 1,40.8006,-73.9653,-1,6,4,6,5,6,6,5,5,5,6,5,5,6,6,5,5,6,5.416667, 0.80176768,6,5,6,3,4,4,5,5,3,4,6,5,4.666667, 0.28914141, 0.75000000,5.041667, 0.51262626, 0.545454545,5,4,4,2,2,3,2,5,4,4,4,4,4.2, 0.54848485,2,2,2,3,2,2.2,-1.53939394, 2.0,3.2, 2.08787879,-0.495454545,6,6,6,6,5,5,6,6,6,6,6,6,6,5,6,5.8, 0.67575758,NA,"positive","inventive",NA,NA,NA,NA,0,15,15,18,NA,NA,NA,NA,"up",0,0.6088481,"2016_Sep_30_1215",59.98444,"heterogeneity160929b",1,  205,16,-0.100,0.6088481,6.411569,205, 0.5, 608.8481,-1.084662423
205,"R_yluFgRU6psBBJnz","Default Response Set","Anonymous",NA,NA,"128.59.230.241",0,"9/30/16 12:08","9/30/16 12:14",1,1,205,105139,1,1,4,4,4,2,3,3,4,2,4,2,5,2,6,6,2,2,6,2,3,6,6,1,5,5,5,5,6,6,3,3,4,3,2,3,5,5,4,3,5,3,6,4,3,1,5,3,1,5,6,5,3,1,18,2,NA, 0, 5,"",6,"In a relationship","No","No, it was interesting to evaluate myself. ", 1,40.8006,-73.9653,-1,6,4,6,5,6,6,5,5,5,6,5,5,6,6,5,5,6,5.416667, 0.80176768,6,5,6,3,4,4,5,5,3,4,6,5,4.666667, 0.28914141, 0.75000000,5.041667, 0.51262626, 0.545454545,5,4,4,2,2,3,2,5,4,4,4,4,4.2, 0.54848485,2,2,2,3,2,2.2,-1.53939394, 2.0,3.2, 2.08787879,-0.495454545,6,6,6,6,5,5,6,6,6,6,6,6,6,5,6,5.8, 0.67575758,NA,"positive","ambitious",NA,NA,NA,NA,0,17,17,10,NA,NA,NA,NA,"up",0,0.6589601,"2016_Sep_30_1215",59.98444,"heterogeneity160929b",1,  205,18,-0.050,0.6589601,6.490663,205, 0.5, 658.9601,-0.943921881
205,"R_yluFgRU6psBBJnz","Default Response Set","Anonymous",NA,NA,"128.59.230.241",0,"9/30/16 12:08","9/30/16 12:14",1,1,205,105139,1,1,4,4,4,2,3,3,4,2,4,2,5,2,6,6,2,2,6,2,3,6,6,1,5,5,5,5,6,6,3,3,4,3,2,3,5,5,4,3,5,3,6,4,3,1,5,3,1,5,6,5,3,1,18,2,NA, 0, 5,"",6,"In a relationship","No","No, it was interesting to evaluate myself. ", 1,40.8006,-73.9653,-1,6,4,6,5,6,6,5,5,5,6,5,5,6,6,5,5,6,5.416667, 0.80176768,6,5,6,3,4,4,5,5,3,4,6,5,4.666667, 0.28914141, 0.75000000,5.041667, 0.51262626, 0.545454545,5,4,4,2,2,3,2,5,4,4,4,4,4.2, 0.54848485,2,2,2,3,2,2.2,-1.53939394, 2.0,3.2, 2.08787879,-0.495454545,6,6,6,6,5,5,6,6,6,6,6,6,6,5,6,5.8, 0.67575758,NA,"negative","anxious",NA,NA,NA,NA,0,18,18,35,NA,NA,NA,NA,"up",0,0.9594171,"2016_Sep_30_1215",59.98444,"heterogeneity160929b",1,  205,19,-0.025,0.9594171,6.866326,205,-0.5, 959.4171,-0.100082608
205,"R_yluFgRU6psBBJnz","Default Response Set","Anonymous",NA,NA,"128.59.230.241",0,"9/30/16 12:08","9/30/16 12:14",1,1,205,105139,1,1,4,4,4,2,3,3,4,2,4,2,5,2,6,6,2,2,6,2,3,6,6,1,5,5,5,5,6,6,3,3,4,3,2,3,5,5,4,3,5,3,6,4,3,1,5,3,1,5,6,5,3,1,18,2,NA, 0, 5,"",6,"In a relationship","No","No, it was interesting to evaluate myself. ", 1,40.8006,-73.9653,-1,6,4,6,5,6,6,5,5,5,6,5,5,6,6,5,5,6,5.416667, 0.80176768,6,5,6,3,4,4,5,5,3,4,6,5,4.666667, 0.28914141, 0.75000000,5.041667, 0.51262626, 0.545454545,5,4,4,2,2,3,2,5,4,4,4,4,4.2, 0.54848485,2,2,2,3,2,2.2,-1.53939394, 2.0,3.2, 2.08787879,-0.495454545,6,6,6,6,5,5,6,6,6,6,6,6,6,5,6,5.8, 0.67575758,NA,"positive","talented",NA,NA,NA,NA,0,20,20, 0,NA,NA,NA,NA,"up",0,0.6086180,"2016_Sep_30_1215",59.98444,"heterogeneity160929b",1,  205,21, 0.025,0.6086180,6.411191,205, 0.5, 608.6180,-1.085308590
205,"R_yluFgRU6psBBJnz","Default Response Set","Anonymous",NA,NA,"128.59.230.241",0,"9/30/16 12:08","9/30/16 12:14",1,1,205,105139,1,1,4,4,4,2,3,3,4,2,4,2,5,2,6,6,2,2,6,2,3,6,6,1,5,5,5,5,6,6,3,3,4,3,2,3,5,5,4,3,5,3,6,4,3,1,5,3,1,5,6,5,3,1,18,2,NA, 0, 5,"",6,"In a relationship","No","No, it was interesting to evaluate myself. ", 1,40.8006,-73.9653,-1,6,4,6,5,6,6,5,5,5,6,5,5,6,6,5,5,6,5.416667, 0.80176768,6,5,6,3,4,4,5,5,3,4,6,5,4.666667, 0.28914141, 0.75000000,5.041667, 0.51262626, 0.545454545,5,4,4,2,2,3,2,5,4,4,4,4,4.2, 0.54848485,2,2,2,3,2,2.2,-1.53939394, 2.0,3.2, 2.08787879,-0.495454545,6,6,6,6,5,5,6,6,6,6,6,6,6,5,6,5.8, 0.67575758,NA,"negative","stubborn",NA,NA,NA,NA,0,22,22,39,NA,NA,NA,NA,"up",0,0.8259101,"2016_Sep_30_1215",59.98444,"heterogeneity160929b",1,  205,23, 0.075,0.8259101,6.716486,205,-0.5, 825.9101,-0.475039628
205,"R_yluFgRU6psBBJnz","Default Response Set","Anonymous",NA,NA,"128.59.230.241",0,"9/30/16 12:08","9/30/16 12:14",1,1,205,105139,1,1,4,4,4,2,3,3,4,2,4,2,5,2,6,6,2,2,6,2,3,6,6,1,5,5,5,5,6,6,3,3,4,3,2,3,5,5,4,3,5,3,6,4,3,1,5,3,1,5,6,5,3,1,18,2,NA, 0, 5,"",6,"In a relationship","No","No, it was interesting to evaluate myself. ", 1,40.8006,-73.9653,-1,6,4,6,5,6,6,5,5,5,6,5,5,6,6,5,5,6,5.416667, 0.80176768,6,5,6,3,4,4,5,5,3,4,6,5,4.666667, 0.28914141, 0.75000000,5.041667, 0.51262626, 0.545454545,5,4,4,2,2,3,2,5,4,4,4,4,4.2, 0.54848485,2,2,2,3,2,2.2,-1.53939394, 2.0,3.2, 2.08787879,-0.495454545,6,6,6,6,5,5,6,6,6,6,6,6,6,5,6,5.8, 0.67575758,NA,"positive","confident",NA,NA,NA,NA,0,25,25, 7,NA,NA,NA,NA,"up",0,0.6733608,"2016_Sep_30_1215",59.98444,"heterogeneity160929b",1,  205,26, 0.150,0.6733608,6.512281,205, 0.5, 673.3608,-0.903477179
205,"R_yluFgRU6psBBJnz","Default Response Set","Anonymous",NA,NA,"128.59.230.241",0,"9/30/16 12:08","9/30/16 12:14",1,1,205,105139,1,1,4,4,4,2,3,3,4,2,4,2,5,2,6,6,2,2,6,2,3,6,6,1,5,5,5,5,6,6,3,3,4,3,2,3,5,5,4,3,5,3,6,4,3,1,5,3,1,5,6,5,3,1,18,2,NA, 0, 5,"",6,"In a relationship","No","No, it was interesting to evaluate myself. ", 1,40.8006,-73.9653,-1,6,4,6,5,6,6,5,5,5,6,5,5,6,6,5,5,6,5.416667, 0.80176768,6,5,6,3,4,4,5,5,3,4,6,5,4.666667, 0.28914141, 0.75000000,5.041667, 0.51262626, 0.545454545,5,4,4,2,2,3,2,5,4,4,4,4,4.2, 0.54848485,2,2,2,3,2,2.2,-1.53939394, 2.0,3.2, 2.08787879,-0.495454545,6,6,6,6,5,5,6,6,6,6,6,6,6,5,6,5.8, 0.67575758,NA,"positive","outgoing",NA,NA,NA,NA,0,29,29,17,NA,NA,NA,NA,"up",0,0.6259530,"2016_Sep_30_1215",59.98444,"heterogeneity160929b",1,  205,30, 0.250,0.6259530,6.439275,205, 0.5, 625.9530,-1.036623083
205,"R_yluFgRU6psBBJnz","Default Response Set","Anonymous",NA,NA,"128.59.230.241",0,"9/30/16 12:08","9/30/16 12:14",1,1,205,105139,1,1,4,4,4,2,3,3,4,2,4,2,5,2,6,6,2,2,6,2,3,6,6,1,5,5,5,5,6,6,3,3,4,3,2,3,5,5,4,3,5,3,6,4,3,1,5,3,1,5,6,5,3,1,18,2,NA, 0, 5,"",6,"In a relationship","No","No, it was interesting to evaluate myself. ", 1,40.8006,-73.9653,-1,6,4,6,5,6,6,5,5,5,6,5,5,6,6,5,5,6,5.416667, 0.80176768,6,5,6,3,4,4,5,5,3,4,6,5,4.666667, 0.28914141, 0.75000000,5.041667, 0.51262626, 0.545454545,5,4,4,2,2,3,2,5,4,4,4,4,4.2, 0.54848485,2,2,2,3,2,2.2,-1.53939394, 2.0,3.2, 2.08787879,-0.495454545,6,6,6,6,5,5,6,6,6,6,6,6,6,5,6,5.8, 0.67575758,NA,"negative","impulsive",NA,NA,NA,NA,0,30,30,21,NA,NA,NA,NA,"up",0,0.6082752,"2016_Sep_30_1215",59.98444,"heterogeneity160929b",1,  205,31, 0.275,0.6082752,6.410627,205,-0.5, 608.2752,-1.086271480
205,"R_yluFgRU6psBBJnz","Default Response Set","Anonymous",NA,NA,"128.59.230.241",0,"9/30/16 12:08","9/30/16 12:14",1,1,205,105139,1,1,4,4,4,2,3,3,4,2,4,2,5,2,6,6,2,2,6,2,3,6,6,1,5,5,5,5,6,6,3,3,4,3,2,3,5,5,4,3,5,3,6,4,3,1,5,3,1,5,6,5,3,1,18,2,NA, 0, 5,"",6,"In a relationship","No","No, it was interesting to evaluate myself. ", 1,40.8006,-73.9653,-1,6,4,6,5,6,6,5,5,5,6,5,5,6,6,5,5,6,5.416667, 0.80176768,6,5,6,3,4,4,5,5,3,4,6,5,4.666667, 0.28914141, 0.75000000,5.041667, 0.51262626, 0.545454545,5,4,4,2,2,3,2,5,4,4,4,4,4.2, 0.54848485,2,2,2,3,2,2.2,-1.53939394, 2.0,3.2, 2.08787879,-0.495454545,6,6,6,6,5,5,6,6,6,6,6,6,6,5,6,5.8, 0.67575758,NA,"negative","cynical",NA,NA,NA,NA,0,37,37,37,NA,NA,NA,NA,"up",0,1.4761381,"2016_Sep_30_1215",59.98444,"heterogeneity160929b",1,  205,38, 0.450,1.4761381,7.297185,205,-0.5,1476.1381, 1.351138297
206,"R_BEPJp5GJurR0Kf7","Default Response Set","Anonymous",NA,NA,"128.59.230.241",0,"9/30/16 12:19","9/30/16 12:38",1,1,206,104953,1,2,2,4,3,4,2,2,2,2,3,2,5,6,5,5,3,6,5,6,5,6,5,3,5,6,6,5,5,5,4,3,5,2,5,2,6,6,1,2,5,6,5,3,3,5,5,4,3,5,5,5,3,1,18,2,NA, 1, 5,"",1,"","I am not quite sure of what you are testing, however I know it might have to do with someone's desire to thrive vs. actually doing it. Moreover, the questions in the end suggested to me that you might link this to race (specifically Latino/hispano). ","For me it was a little weird the question in the middle of the study that asked me to select somewhat disagree as the answer. I don't think I may have completed any parts improperly, I would probably answer the study the same way if I had to do it again. ", 1,40.8006,-73.9653,-1,4,4,4,2,2,5,5,6,6,5,2,6,5,2,5,5,5,4.750000, 0.13510101,4,5,5,4,4,5,6,5,6,3,4,5,4.666667, 0.28914141, 0.08333333,4.708333,-0.15404040, 0.212121212,4,4,4,4,3,4,4,4,4,4,3,4,3.8, 0.14848485,4,3,4,4,4,3.8, 0.06060606, 0.0,3.8, 0.08787879, 0.104545455,2,5,2,2,3,5,2,5,5,5,2,5,2,3,6,4.0,-1.12424242,NA,"positive","inventive",NA,NA,NA,NA,0, 0, 0,18,NA,NA,NA,NA,"up",0,1.6922421,"2016_Sep_30_1233",60.01070,"heterogeneity160929b",1,  206, 1,-0.475,1.6922421,7.433810,206, 0.5,1692.2421, 1.958070629
206,"R_BEPJp5GJurR0Kf7","Default Response Set","Anonymous",NA,NA,"128.59.230.241",0,"9/30/16 12:19","9/30/16 12:38",1,1,206,104953,1,2,2,4,3,4,2,2,2,2,3,2,5,6,5,5,3,6,5,6,5,6,5,3,5,6,6,5,5,5,4,3,5,2,5,2,6,6,1,2,5,6,5,3,3,5,5,4,3,5,5,5,3,1,18,2,NA, 1, 5,"",1,"","I am not quite sure of what you are testing, however I know it might have to do with someone's desire to thrive vs. actually doing it. Moreover, the questions in the end suggested to me that you might link this to race (specifically Latino/hispano). ","For me it was a little weird the question in the middle of the study that asked me to select somewhat disagree as the answer. I don't think I may have completed any parts improperly, I would probably answer the study the same way if I had to do it again. ", 1,40.8006,-73.9653,-1,4,4,4,2,2,5,5,6,6,5,2,6,5,2,5,5,5,4.750000, 0.13510101,4,5,5,4,4,5,6,5,6,3,4,5,4.666667, 0.28914141, 0.08333333,4.708333,-0.15404040, 0.212121212,4,4,4,4,3,4,4,4,4,4,3,4,3.8, 0.14848485,4,3,4,4,4,3.8, 0.06060606, 0.0,3.8, 0.08787879, 0.104545455,2,5,2,2,3,5,2,5,5,5,2,5,2,3,6,4.0,-1.12424242,NA,"positive","persistent",NA,NA,NA,NA,0, 1, 1,13,NA,NA,NA,NA,"up",0,1.1079099,"2016_Sep_30_1233",60.01070,"heterogeneity160929b",1,  206, 2,-0.450,1.1079099,7.010231,206, 0.5,1107.9099, 0.316962316
