"id1","subject","subj","age","gender","gender_TEXT","hispanic","race","race_TEXT","relstat","relstat_TEXT","ass.matrix.1","ass.matrix.2","ass.matrix.3","ass.matrix.4","ass.matrix.5","ass.matrix.6","ass.matrix.7","ass.matrix.8","ass.matrix.9","ass.matrix.10","ass.matrix.11","ass.matrix.12","ass.v","ass.c","rmpredom","rmpredomave","rmpredom.c","rmpredomave.c","prom.matrix.1","prom.matrix.2","prom.matrix.3","prom.matrix.4","prom.matrix.5","prom.v","prom.c","prev.matrix.1","prev.matrix.2","prev.matrix.3","prev.matrix.4","prev.matrix.5","prev.v","prev.c","rfpredom","rfpredomave","rfpredom.c","rfpredomave.c","se.all.1","se.all.2","se.all.3","se.all.4","se.all.5","se.all.6","se.all.7","se.all.8","se.all.9","se.all.10","se.v","se.c","pracword","valence","word","response.rt","session","participant","trial40","trial40c","rt","logrt","id","valenceE","rtms","rt.z"
201,201, 91993,20,2,NA, 0, 2,"",6,"Dating but not living together",4,5,5,5,2,5,5,5,5,2,4,3,4.166667,-0.21085859, 0.58333333,4.458333, 0.34595960,-0.037878788,4,4,3,4,4,3.8, 0.14848485,4,4,4,4,4,4.0, 0.26060606,-0.2,3.9,-0.11212121, 0.204545455,6,3,6,6,5,5,6,4,4,5,5.0,-0.12424242,NA,"negative","insecure",0.7764301,1,  201, 1,-0.475,0.7764301,6.654707,201,-0.5, 776.4301,-0.614005051
201,201, 91993,20,2,NA, 0, 2,"",6,"Dating but not living together",4,5,5,5,2,5,5,5,5,2,4,3,4.166667,-0.21085859, 0.58333333,4.458333, 0.34595960,-0.037878788,4,4,3,4,4,3.8, 0.14848485,4,4,4,4,4,4.0, 0.26060606,-0.2,3.9,-0.11212121, 0.204545455,6,3,6,6,5,5,6,4,4,5,5.0,-0.12424242,NA,"positive","thrifty",0.8090930,1,  201, 8,-0.300,0.8090930,6.695914,201, 0.5, 809.0930,-0.522270754
201,201, 91993,20,2,NA, 0, 2,"",6,"Dating but not living together",4,5,5,5,2,5,5,5,5,2,4,3,4.166667,-0.21085859, 0.58333333,4.458333, 0.34595960,-0.037878788,4,4,3,4,4,3.8, 0.14848485,4,4,4,4,4,4.0, 0.26060606,-0.2,3.9,-0.11212121, 0.204545455,6,3,6,6,5,5,6,4,4,5,5.0,-0.12424242,NA,"positive","wise",0.9774442,1,  201,10,-0.250,0.9774442,6.884941,201, 0.5, 977.4442,-0.049453244
201,201, 91993,20,2,NA, 0, 2,"",6,"Dating but not living together",4,5,5,5,2,5,5,5,5,2,4,3,4.166667,-0.21085859, 0.58333333,4.458333, 0.34595960,-0.037878788,4,4,3,4,4,3.8, 0.14848485,4,4,4,4,4,4.0, 0.26060606,-0.2,3.9,-0.11212121, 0.204545455,6,3,6,6,5,5,6,4,4,5,5.0,-0.12424242,NA,"negative","clumsy",0.8267360,1,  201,12,-0.200,0.8267360,6.717485,201,-0.5, 826.7360,-0.472720122
201,201, 91993,20,2,NA, 0, 2,"",6,"Dating but not living together",4,5,5,5,2,5,5,5,5,2,4,3,4.166667,-0.21085859, 0.58333333,4.458333, 0.34595960,-0.037878788,4,4,3,4,4,3.8, 0.14848485,4,4,4,4,4,4.0, 0.26060606,-0.2,3.9,-0.11212121, 0.204545455,6,3,6,6,5,5,6,4,4,5,5.0,-0.12424242,NA,"negative","anxious",0.8430300,1,  201,13,-0.175,0.8430300,6.737003,201,-0.5, 843.0300,-0.426958101
201,201, 91993,20,2,NA, 0, 2,"",6,"Dating but not living together",4,5,5,5,2,5,5,5,5,2,4,3,4.166667,-0.21085859, 0.58333333,4.458333, 0.34595960,-0.037878788,4,4,3,4,4,3.8, 0.14848485,4,4,4,4,4,4.0, 0.26060606,-0.2,3.9,-0.11212121, 0.204545455,6,3,6,6,5,5,6,4,4,5,5.0,-0.12424242,NA,"positive","enthusiastic",0.8405669,1,  201,14,-0.150,0.8405669,6.734077,201, 0.5, 840.5669,-0.433875771
201,201, 91993,20,2,NA, 0, 2,"",6,"Dating but not living together",4,5,5,5,2,5,5,5,5,2,4,3,4.166667,-0.21085859, 0.58333333,4.458333, 0.34595960,-0.037878788,4,4,3,4,4,3.8, 0.14848485,4,4,4,4,4,4.0, 0.26060606,-0.2,3.9,-0.11212121, 0.204545455,6,3,6,6,5,5,6,4,4,5,5.0,-0.12424242,NA,"positive","ambitious",0.6755259,1,  201,15,-0.125,0.6755259,6.515492,201, 0.5, 675.5259,-0.897396512
201,201, 91993,20,2,NA, 0, 2,"",6,"Dating but not living together",4,5,5,5,2,5,5,5,5,2,4,3,4.166667,-0.21085859, 0.58333333,4.458333, 0.34595960,-0.037878788,4,4,3,4,4,3.8, 0.14848485,4,4,4,4,4,4.0, 0.26060606,-0.2,3.9,-0.11212121, 0.204545455,6,3,6,6,5,5,6,4,4,5,5.0,-0.12424242,NA,"negative","fearful",1.5594580,1,  201,18,-0.050,1.5594580,7.352094,201,-0.5,1559.4580, 1.585143846
201,201, 91993,20,2,NA, 0, 2,"",6,"Dating but not living together",4,5,5,5,2,5,5,5,5,2,4,3,4.166667,-0.21085859, 0.58333333,4.458333, 0.34595960,-0.037878788,4,4,3,4,4,3.8, 0.14848485,4,4,4,4,4,4.0, 0.26060606,-0.2,3.9,-0.11212121, 0.204545455,6,3,6,6,5,5,6,4,4,5,5.0,-0.12424242,NA,"positive","courageous",1.1751850,1,  201,19,-0.025,1.1751850,7.069181,201, 0.5,1175.1850, 0.505905581
201,201, 91993,20,2,NA, 0, 2,"",6,"Dating but not living together",4,5,5,5,2,5,5,5,5,2,4,3,4.166667,-0.21085859, 0.58333333,4.458333, 0.34595960,-0.037878788,4,4,3,4,4,3.8, 0.14848485,4,4,4,4,4,4.0, 0.26060606,-0.2,3.9,-0.11212121, 0.204545455,6,3,6,6,5,5,6,4,4,5,5.0,-0.12424242,NA,"positive","confident",0.9918990,1,  201,20, 0.000,0.9918990,6.899621,201, 0.5, 991.8990,-0.008856542
201,201, 91993,20,2,NA, 0, 2,"",6,"Dating but not living together",4,5,5,5,2,5,5,5,5,2,4,3,4.166667,-0.21085859, 0.58333333,4.458333, 0.34595960,-0.037878788,4,4,3,4,4,3.8, 0.14848485,4,4,4,4,4,4.0, 0.26060606,-0.2,3.9,-0.11212121, 0.204545455,6,3,6,6,5,5,6,4,4,5,5.0,-0.12424242,NA,"positive","persistent",0.7586100,1,  201,23, 0.075,0.7586100,6.631488,201, 0.5, 758.6100,-0.664053201
201,201, 91993,20,2,NA, 0, 2,"",6,"Dating but not living together",4,5,5,5,2,5,5,5,5,2,4,3,4.166667,-0.21085859, 0.58333333,4.458333, 0.34595960,-0.037878788,4,4,3,4,4,3.8, 0.14848485,4,4,4,4,4,4.0, 0.26060606,-0.2,3.9,-0.11212121, 0.204545455,6,3,6,6,5,5,6,4,4,5,5.0,-0.12424242,NA,"positive","orderly",0.7927721,1,  201,25, 0.125,0.7927721,6.675536,201, 0.5, 792.7721,-0.568108440
201,201, 91993,20,2,NA, 0, 2,"",6,"Dating but not living together",4,5,5,5,2,5,5,5,5,2,4,3,4.166667,-0.21085859, 0.58333333,4.458333, 0.34595960,-0.037878788,4,4,3,4,4,3.8, 0.14848485,4,4,4,4,4,4.0, 0.26060606,-0.2,3.9,-0.11212121, 0.204545455,6,3,6,6,5,5,6,4,4,5,5.0,-0.12424242,NA,"positive","talented",0.9903312,1,  201,26, 0.150,0.9903312,6.898039,201, 0.5, 990.3312,-0.013259853
201,201, 91993,20,2,NA, 0, 2,"",6,"Dating but not living together",4,5,5,5,2,5,5,5,5,2,4,3,4.166667,-0.21085859, 0.58333333,4.458333, 0.34595960,-0.037878788,4,4,3,4,4,3.8, 0.14848485,4,4,4,4,4,4.0, 0.26060606,-0.2,3.9,-0.11212121, 0.204545455,6,3,6,6,5,5,6,4,4,5,5.0,-0.12424242,NA,"negative","messy",0.9936080,1,  201,27, 0.175,0.9936080,6.901343,201,-0.5, 993.6080,-0.004056827
201,201, 91993,20,2,NA, 0, 2,"",6,"Dating but not living together",4,5,5,5,2,5,5,5,5,2,4,3,4.166667,-0.21085859, 0.58333333,4.458333, 0.34595960,-0.037878788,4,4,3,4,4,3.8, 0.14848485,4,4,4,4,4,4.0, 0.26060606,-0.2,3.9,-0.11212121, 0.204545455,6,3,6,6,5,5,6,4,4,5,5.0,-0.12424242,NA,"positive","trusting",1.1924739,1,  201,28, 0.200,1.1924739,7.083785,201, 0.5,1192.4739, 0.554461854
201,201, 91993,20,2,NA, 0, 2,"",6,"Dating but not living together",4,5,5,5,2,5,5,5,5,2,4,3,4.166667,-0.21085859, 0.58333333,4.458333, 0.34595960,-0.037878788,4,4,3,4,4,3.8, 0.14848485,4,4,4,4,4,4.0, 0.26060606,-0.2,3.9,-0.11212121, 0.204545455,6,3,6,6,5,5,6,4,4,5,5.0,-0.12424242,NA,"positive","proud",1.3436041,1,  201,29, 0.225,1.3436041,7.203111,201, 0.5,1343.6041, 0.978913930
201,201, 91993,20,2,NA, 0, 2,"",6,"Dating but not living together",4,5,5,5,2,5,5,5,5,2,4,3,4.166667,-0.21085859, 0.58333333,4.458333, 0.34595960,-0.037878788,4,4,3,4,4,3.8, 0.14848485,4,4,4,4,4,4.0, 0.26060606,-0.2,3.9,-0.11212121, 0.204545455,6,3,6,6,5,5,6,4,4,5,5.0,-0.12424242,NA,"positive","disciplined",0.7749238,1,  201,30, 0.250,0.7749238,6.652765,201, 0.5, 774.9238,-0.618235605
201,201, 91993,20,2,NA, 0, 2,"",6,"Dating but not living together",4,5,5,5,2,5,5,5,5,2,4,3,4.166667,-0.21085859, 0.58333333,4.458333, 0.34595960,-0.037878788,4,4,3,4,4,3.8, 0.14848485,4,4,4,4,4,4.0, 0.26060606,-0.2,3.9,-0.11212121, 0.204545455,6,3,6,6,5,5,6,4,4,5,5.0,-0.12424242,NA,"negative","stubborn",0.6261199,1,  201,31, 0.275,0.6261199,6.439542,201,-0.5, 626.1199,-1.036154361
201,201, 91993,20,2,NA, 0, 2,"",6,"Dating but not living together",4,5,5,5,2,5,5,5,5,2,4,3,4.166667,-0.21085859, 0.58333333,4.458333, 0.34595960,-0.037878788,4,4,3,4,4,3.8, 0.14848485,4,4,4,4,4,4.0, 0.26060606,-0.2,3.9,-0.11212121, 0.204545455,6,3,6,6,5,5,6,4,4,5,5.0,-0.12424242,NA,"negative","inhibited",1.0755310,1,  201,32, 0.300,1.0755310,6.980570,201,-0.5,1075.5310, 0.226025518
201,201, 91993,20,2,NA, 0, 2,"",6,"Dating but not living together",4,5,5,5,2,5,5,5,5,2,4,3,4.166667,-0.21085859, 0.58333333,4.458333, 0.34595960,-0.037878788,4,4,3,4,4,3.8, 0.14848485,4,4,4,4,4,4.0, 0.26060606,-0.2,3.9,-0.11212121, 0.204545455,6,3,6,6,5,5,6,4,4,5,5.0,-0.12424242,NA,"negative","worrying",0.8092182,1,  201,34, 0.350,0.8092182,6.696069,201,-0.5, 809.2182,-0.521919215
201,201, 91993,20,2,NA, 0, 2,"",6,"Dating but not living together",4,5,5,5,2,5,5,5,5,2,4,3,4.166667,-0.21085859, 0.58333333,4.458333, 0.34595960,-0.037878788,4,4,3,4,4,3.8, 0.14848485,4,4,4,4,4,4.0, 0.26060606,-0.2,3.9,-0.11212121, 0.204545455,6,3,6,6,5,5,6,4,4,5,5.0,-0.12424242,NA,"negative","cynical",0.6596160,1,  201,35, 0.375,0.6596160,6.491658,201,-0.5, 659.6160,-0.942079801
201,201, 91993,20,2,NA, 0, 2,"",6,"Dating but not living together",4,5,5,5,2,5,5,5,5,2,4,3,4.166667,-0.21085859, 0.58333333,4.458333, 0.34595960,-0.037878788,4,4,3,4,4,3.8, 0.14848485,4,4,4,4,4,4.0, 0.26060606,-0.2,3.9,-0.11212121, 0.204545455,6,3,6,6,5,5,6,4,4,5,5.0,-0.12424242,NA,"positive","idealistic",0.6255448,1,  201,37, 0.425,0.6255448,6.438623,201, 0.5, 625.5448,-1.037769445
201,201, 91993,20,2,NA, 0, 2,"",6,"Dating but not living together",4,5,5,5,2,5,5,5,5,2,4,3,4.166667,-0.21085859, 0.58333333,4.458333, 0.34595960,-0.037878788,4,4,3,4,4,3.8, 0.14848485,4,4,4,4,4,4.0, 0.26060606,-0.2,3.9,-0.11212121, 0.204545455,6,3,6,6,5,5,6,4,4,5,5.0,-0.12424242,NA,"positive","inventive",0.7422462,1,  201,40, 0.500,0.7422462,6.609681,201, 0.5, 742.2462,-0.710011414
202,202,109054,22,1,NA, 0, 2,"",1,"",5,4,5,5,5,5,5,6,5,3,5,6,4.916667, 0.53914141,-0.25000000,4.791667,-0.48737374, 0.295454545,4,4,4,4,3,3.8, 0.14848485,4,4,3,4,4,3.8, 0.06060606, 0.0,3.8, 0.08787879, 0.104545455,6,5,7,6,6,6,7,5,7,6,6.1, 0.97575758,NA,"positive","disciplined",0.7249870,1,  202, 2,-0.450,0.7249870,6.586154,202, 0.5, 724.9870,-0.758483988
202,202,109054,22,1,NA, 0, 2,"",1,"",5,4,5,5,5,5,5,6,5,3,5,6,4.916667, 0.53914141,-0.25000000,4.791667,-0.48737374, 0.295454545,4,4,4,4,3,3.8, 0.14848485,4,4,3,4,4,3.8, 0.06060606, 0.0,3.8, 0.08787879, 0.104545455,6,5,7,6,6,6,7,5,7,6,6.1, 0.97575758,NA,"negative","irritable",1.1086020,1,  202, 3,-0.425,1.1086020,7.010855,202,-0.5,1108.6020, 0.318906174
202,202,109054,22,1,NA, 0, 2,"",1,"",5,4,5,5,5,5,5,6,5,3,5,6,4.916667, 0.53914141,-0.25000000,4.791667,-0.48737374, 0.295454545,4,4,4,4,3,3.8, 0.14848485,4,4,3,4,4,3.8, 0.06060606, 0.0,3.8, 0.08787879, 0.104545455,6,5,7,6,6,6,7,5,7,6,6.1, 0.97575758,NA,"positive","trusting",0.7258430,1,  202, 5,-0.375,0.7258430,6.587334,202, 0.5, 725.8430,-0.756080112
202,202,109054,22,1,NA, 0, 2,"",1,"",5,4,5,5,5,5,5,6,5,3,5,6,4.916667, 0.53914141,-0.25000000,4.791667,-0.48737374, 0.295454545,4,4,4,4,3,3.8, 0.14848485,4,4,3,4,4,3.8, 0.06060606, 0.0,3.8, 0.08787879, 0.104545455,6,5,7,6,6,6,7,5,7,6,6.1, 0.97575758,NA,"positive","talented",0.5924771,1,  202, 6,-0.350,0.5924771,6.384312,202, 0.5, 592.4771,-1.130640725
202,202,109054,22,1,NA, 0, 2,"",1,"",5,4,5,5,5,5,5,6,5,3,5,6,4.916667, 0.53914141,-0.25000000,4.791667,-0.48737374, 0.295454545,4,4,4,4,3,3.8, 0.14848485,4,4,3,4,4,3.8, 0.06060606, 0.0,3.8, 0.08787879, 0.104545455,6,5,7,6,6,6,7,5,7,6,6.1, 0.97575758,NA,"negative","worrying",0.8088801,1,  202, 9,-0.275,0.8088801,6.695651,202,-0.5, 808.8801,-0.522868711
202,202,109054,22,1,NA, 0, 2,"",1,"",5,4,5,5,5,5,5,6,5,3,5,6,4.916667, 0.53914141,-0.25000000,4.791667,-0.48737374, 0.295454545,4,4,4,4,3,3.8, 0.14848485,4,4,3,4,4,3.8, 0.06060606, 0.0,3.8, 0.08787879, 0.104545455,6,5,7,6,6,6,7,5,7,6,6.1, 0.97575758,NA,"positive","persistent",0.7577460,1,  202,10,-0.250,0.7577460,6.630348,202, 0.5, 757.7460,-0.666479843
202,202,109054,22,1,NA, 0, 2,"",1,"",5,4,5,5,5,5,5,6,5,3,5,6,4.916667, 0.53914141,-0.25000000,4.791667,-0.48737374, 0.295454545,4,4,4,4,3,3.8, 0.14848485,4,4,3,4,4,3.8, 0.06060606, 0.0,3.8, 0.08787879, 0.104545455,6,5,7,6,6,6,7,5,7,6,6.1, 0.97575758,NA,"positive","courageous",0.5917590,1,  202,11,-0.225,0.5917590,6.383099,202, 0.5, 591.7590,-1.132657571
202,202,109054,22,1,NA, 0, 2,"",1,"",5,4,5,5,5,5,5,6,5,3,5,6,4.916667, 0.53914141,-0.25000000,4.791667,-0.48737374, 0.295454545,4,4,4,4,3,3.8, 0.14848485,4,4,3,4,4,3.8, 0.06060606, 0.0,3.8, 0.08787879, 0.104545455,6,5,7,6,6,6,7,5,7,6,6.1, 0.97575758,NA,"negative","stubborn",0.7092030,1,  202,13,-0.175,0.7092030,6.564142,202,-0.5, 709.2030,-0.802813726
202,202,109054,22,1,NA, 0, 2,"",1,"",5,4,5,5,5,5,5,6,5,3,5,6,4.916667, 0.53914141,-0.25000000,4.791667,-0.48737374, 0.295454545,4,4,4,4,3,3.8, 0.14848485,4,4,3,4,4,3.8, 0.06060606, 0.0,3.8, 0.08787879, 0.104545455,6,5,7,6,6,6,7,5,7,6,6.1, 0.97575758,NA,"positive","proud",0.5761139,1,  202,14,-0.150,0.5761139,6.356305,202, 0.5, 576.1139,-1.176596930
202,202,109054,22,1,NA, 0, 2,"",1,"",5,4,5,5,5,5,5,6,5,3,5,6,4.916667, 0.53914141,-0.25000000,4.791667,-0.48737374, 0.295454545,4,4,4,4,3,3.8, 0.14848485,4,4,3,4,4,3.8, 0.06060606, 0.0,3.8, 0.08787879, 0.104545455,6,5,7,6,6,6,7,5,7,6,6.1, 0.97575758,NA,"negative","tense",0.8768480,1,  202,15,-0.125,0.8768480,6.776334,202,-0.5, 876.8480,-0.331979580
202,202,109054,22,1,NA, 0, 2,"",1,"",5,4,5,5,5,5,5,6,5,3,5,6,4.916667, 0.53914141,-0.25000000,4.791667,-0.48737374, 0.295454545,4,4,4,4,3,3.8, 0.14848485,4,4,3,4,4,3.8, 0.06060606, 0.0,3.8, 0.08787879, 0.104545455,6,5,7,6,6,6,7,5,7,6,6.1, 0.97575758,NA,"positive","orderly",0.7929361,1,  202,16,-0.100,0.7929361,6.675743,202, 0.5, 792.9361,-0.567647753
202,202,109054,22,1,NA, 0, 2,"",1,"",5,4,5,5,5,5,5,6,5,3,5,6,4.916667, 0.53914141,-0.25000000,4.791667,-0.48737374, 0.295454545,4,4,4,4,3,3.8, 0.14848485,4,4,3,4,4,3.8, 0.06060606, 0.0,3.8, 0.08787879, 0.104545455,6,5,7,6,6,6,7,5,7,6,6.1, 0.97575758,NA,"positive","tidy",1.4442041,1,  202,17,-0.075,1.4442041,7.275314,202, 0.5,1444.2041, 1.261450979
202,202,109054,22,1,NA, 0, 2,"",1,"",5,4,5,5,5,5,5,6,5,3,5,6,4.916667, 0.53914141,-0.25000000,4.791667,-0.48737374, 0.295454545,4,4,4,4,3,3.8, 0.14848485,4,4,3,4,4,3.8, 0.06060606, 0.0,3.8, 0.08787879, 0.104545455,6,5,7,6,6,6,7,5,7,6,6.1, 0.97575758,NA,"positive","confident",0.5756059,1,  202,18,-0.050,0.5756059,6.355423,202, 0.5, 575.6059,-1.178023855
202,202,109054,22,1,NA, 0, 2,"",1,"",5,4,5,5,5,5,5,6,5,3,5,6,4.916667, 0.53914141,-0.25000000,4.791667,-0.48737374, 0.295454545,4,4,4,4,3,3.8, 0.14848485,4,4,3,4,4,3.8, 0.06060606, 0.0,3.8, 0.08787879, 0.104545455,6,5,7,6,6,6,7,5,7,6,6.1, 0.97575758,NA,"negative","moody",0.8935320,1,  202,19,-0.025,0.8935320,6.795182,202,-0.5, 893.5320,-0.285122088
202,202,109054,22,1,NA, 0, 2,"",1,"",5,4,5,5,5,5,5,6,5,3,5,6,4.916667, 0.53914141,-0.25000000,4.791667,-0.48737374, 0.295454545,4,4,4,4,3,3.8, 0.14848485,4,4,3,4,4,3.8, 0.06060606, 0.0,3.8, 0.08787879, 0.104545455,6,5,7,6,6,6,7,5,7,6,6.1, 0.97575758,NA,"negative","boring",1.1099029,1,  202,21, 0.025,1.1099029,7.012028,202,-0.5,1109.9029, 0.322559529
202,202,109054,22,1,NA, 0, 2,"",1,"",5,4,5,5,5,5,5,6,5,3,5,6,4.916667, 0.53914141,-0.25000000,4.791667,-0.48737374, 0.295454545,4,4,4,4,3,3.8, 0.14848485,4,4,3,4,4,3.8, 0.06060606, 0.0,3.8, 0.08787879, 0.104545455,6,5,7,6,6,6,7,5,7,6,6.1, 0.97575758,NA,"positive","ambitious",0.7754600,1,  202,22, 0.050,0.7754600,6.653456,202, 0.5, 775.4600,-0.616729666
202,202,109054,22,1,NA, 0, 2,"",1,"",5,4,5,5,5,5,5,6,5,3,5,6,4.916667, 0.53914141,-0.25000000,4.791667,-0.48737374, 0.295454545,4,4,4,4,3,3.8, 0.14848485,4,4,3,4,4,3.8, 0.06060606, 0.0,3.8, 0.08787879, 0.104545455,6,5,7,6,6,6,7,5,7,6,6.1, 0.97575758,NA,"positive","enthusiastic",1.3241532,1,  202,25, 0.125,1.3241532,7.188528,202, 0.5,1324.1532, 0.924285695
202,202,109054,22,1,NA, 0, 2,"",1,"",5,4,5,5,5,5,5,6,5,3,5,6,4.916667, 0.53914141,-0.25000000,4.791667,-0.48737374, 0.295454545,4,4,4,4,3,3.8, 0.14848485,4,4,3,4,4,3.8, 0.06060606, 0.0,3.8, 0.08787879, 0.104545455,6,5,7,6,6,6,7,5,7,6,6.1, 0.97575758,NA,"positive","wise",1.3087389,1,  202,26, 0.150,1.3087389,7.176819,202, 0.5,1308.7389, 0.880994511
202,202,109054,22,1,NA, 0, 2,"",1,"",5,4,5,5,5,5,5,6,5,3,5,6,4.916667, 0.53914141,-0.25000000,4.791667,-0.48737374, 0.295454545,4,4,4,4,3,3.8, 0.14848485,4,4,3,4,4,3.8, 0.06060606, 0.0,3.8, 0.08787879, 0.104545455,6,5,7,6,6,6,7,5,7,6,6.1, 0.97575758,NA,"positive","outgoing",0.6087730,1,  202,28, 0.200,0.6087730,6.411445,202, 0.5, 608.7730,-1.084873348
202,202,109054,22,1,NA, 0, 2,"",1,"",5,4,5,5,5,5,5,6,5,3,5,6,4.916667, 0.53914141,-0.25000000,4.791667,-0.48737374, 0.295454545,4,4,4,4,3,3.8, 0.14848485,4,4,3,4,4,3.8, 0.06060606, 0.0,3.8, 0.08787879, 0.104545455,6,5,7,6,6,6,7,5,7,6,6.1, 0.97575758,NA,"positive","neat",0.6110868,1,  202,29, 0.225,0.6110868,6.415239,202, 0.5, 611.0868,-1.078374850
202,202,109054,22,1,NA, 0, 2,"",1,"",5,4,5,5,5,5,5,6,5,3,5,6,4.916667, 0.53914141,-0.25000000,4.791667,-0.48737374, 0.295454545,4,4,4,4,3,3.8, 0.14848485,4,4,3,4,4,3.8, 0.06060606, 0.0,3.8, 0.08787879, 0.104545455,6,5,7,6,6,6,7,5,7,6,6.1, 0.97575758,NA,"negative","forgetful",0.9926350,1,  202,31, 0.275,0.9926350,6.900363,202,-0.5, 992.6350,-0.006789477
202,202,109054,22,1,NA, 0, 2,"",1,"",5,4,5,5,5,5,5,6,5,3,5,6,4.916667, 0.53914141,-0.25000000,4.791667,-0.48737374, 0.295454545,4,4,4,4,3,3.8, 0.14848485,4,4,3,4,4,3.8, 0.06060606, 0.0,3.8, 0.08787879, 0.104545455,6,5,7,6,6,6,7,5,7,6,6.1, 0.97575758,NA,"negative","anxious",0.9260020,1,  202,33, 0.325,0.9260020,6.830876,202,-0.5, 926.0020,-0.193929501
202,202,109054,22,1,NA, 0, 2,"",1,"",5,4,5,5,5,5,5,6,5,3,5,6,4.916667, 0.53914141,-0.25000000,4.791667,-0.48737374, 0.295454545,4,4,4,4,3,3.8, 0.14848485,4,4,3,4,4,3.8, 0.06060606, 0.0,3.8, 0.08787879, 0.104545455,6,5,7,6,6,6,7,5,7,6,6.1, 0.97575758,NA,"positive","tender",0.7928069,1,  202,34, 0.350,0.7928069,6.675580,202, 0.5, 792.8069,-0.568010678
202,202,109054,22,1,NA, 0, 2,"",1,"",5,4,5,5,5,5,5,6,5,3,5,6,4.916667, 0.53914141,-0.25000000,4.791667,-0.48737374, 0.295454545,4,4,4,4,3,3.8, 0.14848485,4,4,3,4,4,3.8, 0.06060606, 0.0,3.8, 0.08787879, 0.104545455,6,5,7,6,6,6,7,5,7,6,6.1, 0.97575758,NA,"positive","idealistic",0.7584829,1,  202,35, 0.375,0.7584829,6.631320,202, 0.5, 758.4829,-0.664410099
202,202,109054,22,1,NA, 0, 2,"",1,"",5,4,5,5,5,5,5,6,5,3,5,6,4.916667, 0.53914141,-0.25000000,4.791667,-0.48737374, 0.295454545,4,4,4,4,3,3.8, 0.14848485,4,4,3,4,4,3.8, 0.06060606, 0.0,3.8, 0.08787879, 0.104545455,6,5,7,6,6,6,7,5,7,6,6.1, 0.97575758,NA,"positive","brilliant",0.5755599,1,  202,36, 0.400,0.5755599,6.355343,202, 0.5, 575.5599,-1.178153086
202,202,109054,22,1,NA, 0, 2,"",1,"",5,4,5,5,5,5,5,6,5,3,5,6,4.916667, 0.53914141,-0.25000000,4.791667,-0.48737374, 0.295454545,4,4,4,4,3,3.8, 0.14848485,4,4,3,4,4,3.8, 0.06060606, 0.0,3.8, 0.08787879, 0.104545455,6,5,7,6,6,6,7,5,7,6,6.1, 0.97575758,NA,"negative","cynical",0.3930211,1,  202,37, 0.425,0.3930211,5.973863,202,-0.5, 393.0211,-1.690816674
202,202,109054,22,1,NA, 0, 2,"",1,"",5,4,5,5,5,5,5,6,5,3,5,6,4.916667, 0.53914141,-0.25000000,4.791667,-0.48737374, 0.295454545,4,4,4,4,3,3.8, 0.14848485,4,4,3,4,4,3.8, 0.06060606, 0.0,3.8, 0.08787879, 0.104545455,6,5,7,6,6,6,7,5,7,6,6.1, 0.97575758,NA,"negative","impulsive",1.6421580,1,  202,40, 0.500,1.6421580,7.403767,202,-0.5,1642.1580, 1.817408428
204,204,108178,23,2,NA, 0, 2,"",1,"",5,5,5,5,2,4,5,6,6,4,6,4,4.750000, 0.37247475,-0.16666667,4.666667,-0.40404040, 0.170454545,4,4,5,4,5,4.4, 0.74848485,4,4,2,4,4,3.6,-0.13939394, 0.8,4.0, 0.88787879, 0.304545455,6,7,7,7,7,7,7,6,7,6,6.7, 1.57575758,NA,"positive","artistic",0.9761570,1,  204, 1,-0.475,0.9761570,6.883623,204, 0.5, 976.1570,-0.053068431
204,204,108178,23,2,NA, 0, 2,"",1,"",5,5,5,5,2,4,5,6,6,4,6,4,4.750000, 0.37247475,-0.16666667,4.666667,-0.40404040, 0.170454545,4,4,5,4,5,4.4, 0.74848485,4,4,2,4,4,3.6,-0.13939394, 0.8,4.0, 0.88787879, 0.304545455,6,7,7,7,7,7,7,6,7,6,6.7, 1.57575758,NA,"positive","neat",0.5941939,1,  204, 3,-0.425,0.5941939,6.387206,204, 0.5, 594.1939,-1.125818913
204,204,108178,23,2,NA, 0, 2,"",1,"",5,5,5,5,2,4,5,6,6,4,6,4,4.750000, 0.37247475,-0.16666667,4.666667,-0.40404040, 0.170454545,4,4,5,4,5,4.4, 0.74848485,4,4,2,4,4,3.6,-0.13939394, 0.8,4.0, 0.88787879, 0.304545455,6,7,7,7,7,7,7,6,7,6,6.7, 1.57575758,NA,"positive","thrifty",0.8096972,1,  204, 5,-0.375,0.8096972,6.696660,204, 0.5, 809.6972,-0.520573982
204,204,108178,23,2,NA, 0, 2,"",1,"",5,5,5,5,2,4,5,6,6,4,6,4,4.750000, 0.37247475,-0.16666667,4.666667,-0.40404040, 0.170454545,4,4,5,4,5,4.4, 0.74848485,4,4,2,4,4,3.6,-0.13939394, 0.8,4.0, 0.88787879, 0.304545455,6,7,7,7,7,7,7,6,7,6,6.7, 1.57575758,NA,"positive","ambitious",0.5922132,1,  204, 6,-0.350,0.5922132,6.383867,204, 0.5, 592.2132,-1.131381975
204,204,108178,23,2,NA, 0, 2,"",1,"",5,5,5,5,2,4,5,6,6,4,6,4,4.750000, 0.37247475,-0.16666667,4.666667,-0.40404040, 0.170454545,4,4,5,4,5,4.4, 0.74848485,4,4,2,4,4,3.6,-0.13939394, 0.8,4.0, 0.88787879, 0.304545455,6,7,7,7,7,7,7,6,7,6,6.7, 1.57575758,NA,"positive","trusting",0.8091900,1,  204, 7,-0.325,0.8091900,6.696034,204, 0.5, 809.1900,-0.521998227
204,204,108178,23,2,NA, 0, 2,"",1,"",5,5,5,5,2,4,5,6,6,4,6,4,4.750000, 0.37247475,-0.16666667,4.666667,-0.40404040, 0.170454545,4,4,5,4,5,4.4, 0.74848485,4,4,2,4,4,3.6,-0.13939394, 0.8,4.0, 0.88787879, 0.304545455,6,7,7,7,7,7,7,6,7,6,6.7, 1.57575758,NA,"positive","proud",0.9431050,1,  204, 9,-0.275,0.9431050,6.849178,204, 0.5, 943.1050,-0.145895520
204,204,108178,23,2,NA, 0, 2,"",1,"",5,5,5,5,2,4,5,6,6,4,6,4,4.750000, 0.37247475,-0.16666667,4.666667,-0.40404040, 0.170454545,4,4,5,4,5,4.4, 0.74848485,4,4,2,4,4,3.6,-0.13939394, 0.8,4.0, 0.88787879, 0.304545455,6,7,7,7,7,7,7,6,7,6,6.7, 1.57575758,NA,"positive","courageous",1.0913248,1,  204,11,-0.225,1.0913248,6.995148,204, 0.5,1091.3248, 0.270382710
204,204,108178,23,2,NA, 0, 2,"",1,"",5,5,5,5,2,4,5,6,6,4,6,4,4.750000, 0.37247475,-0.16666667,4.666667,-0.40404040, 0.170454545,4,4,5,4,5,4.4, 0.74848485,4,4,2,4,4,3.6,-0.13939394, 0.8,4.0, 0.88787879, 0.304545455,6,7,7,7,7,7,7,6,7,6,6.7, 1.57575758,NA,"positive","tender",0.7099340,1,  204,13,-0.175,0.7099340,6.565172,204, 0.5, 709.9340,-0.800760724
204,204,108178,23,2,NA, 0, 2,"",1,"",5,5,5,5,2,4,5,6,6,4,6,4,4.750000, 0.37247475,-0.16666667,4.666667,-0.40404040, 0.170454545,4,4,5,4,5,4.4, 0.74848485,4,4,2,4,4,3.6,-0.13939394, 0.8,4.0, 0.88787879, 0.304545455,6,7,7,7,7,7,7,6,7,6,6.7, 1.57575758,NA,"positive","brilliant",0.8589919,1,  204,23, 0.075,0.8589919,6.755759,204, 0.5, 858.9919,-0.382128840
204,204,108178,23,2,NA, 0, 2,"",1,"",5,5,5,5,2,4,5,6,6,4,6,4,4.750000, 0.37247475,-0.16666667,4.666667,-0.40404040, 0.170454545,4,4,5,4,5,4.4, 0.74848485,4,4,2,4,4,3.6,-0.13939394, 0.8,4.0, 0.88787879, 0.304545455,6,7,7,7,7,7,7,6,7,6,6.7, 1.57575758,NA,"positive","orderly",0.7928591,1,  204,25, 0.125,0.7928591,6.675645,204, 0.5, 792.8591,-0.567864037
204,204,108178,23,2,NA, 0, 2,"",1,"",5,5,5,5,2,4,5,6,6,4,6,4,4.750000, 0.37247475,-0.16666667,4.666667,-0.40404040, 0.170454545,4,4,5,4,5,4.4, 0.74848485,4,4,2,4,4,3.6,-0.13939394, 0.8,4.0, 0.88787879, 0.304545455,6,7,7,7,7,7,7,6,7,6,6.7, 1.57575758,NA,"positive","persistent",0.7564561,1,  204,27, 0.175,0.7564561,6.628645,204, 0.5, 756.4561,-0.670102395
204,204,108178,23,2,NA, 0, 2,"",1,"",5,5,5,5,2,4,5,6,6,4,6,4,4.750000, 0.37247475,-0.16666667,4.666667,-0.40404040, 0.170454545,4,4,5,4,5,4.4, 0.74848485,4,4,2,4,4,3.6,-0.13939394, 0.8,4.0, 0.88787879, 0.304545455,6,7,7,7,7,7,7,6,7,6,6.7, 1.57575758,NA,"negative","cynical",0.9094188,1,  204,28, 0.200,0.9094188,6.812806,204,-0.5, 909.4188,-0.240503752
204,204,108178,23,2,NA, 0, 2,"",1,"",5,5,5,5,2,4,5,6,6,4,6,4,4.750000, 0.37247475,-0.16666667,4.666667,-0.40404040, 0.170454545,4,4,5,4,5,4.4, 0.74848485,4,4,2,4,4,3.6,-0.13939394, 0.8,4.0, 0.88787879, 0.304545455,6,7,7,7,7,7,7,6,7,6,6.7, 1.57575758,NA,"negative","stubborn",0.7759669,1,  204,30, 0.250,0.7759669,6.654110,204,-0.5, 775.9669,-0.615306089
204,204,108178,23,2,NA, 0, 2,"",1,"",5,5,5,5,2,4,5,6,6,4,6,4,4.750000, 0.37247475,-0.16666667,4.666667,-0.40404040, 0.170454545,4,4,5,4,5,4.4, 0.74848485,4,4,2,4,4,3.6,-0.13939394, 0.8,4.0, 0.88787879, 0.304545455,6,7,7,7,7,7,7,6,7,6,6.7, 1.57575758,NA,"positive","wise",0.5610158,1,  204,32, 0.300,0.5610158,6.329749,204, 0.5, 561.0158,-1.219000221
204,204,108178,23,2,NA, 0, 2,"",1,"",5,5,5,5,2,4,5,6,6,4,6,4,4.750000, 0.37247475,-0.16666667,4.666667,-0.40404040, 0.170454545,4,4,5,4,5,4.4, 0.74848485,4,4,2,4,4,3.6,-0.13939394, 0.8,4.0, 0.88787879, 0.304545455,6,7,7,7,7,7,7,6,7,6,6.7, 1.57575758,NA,"positive","disciplined",0.6249659,1,  204,34, 0.350,0.6249659,6.437697,204, 0.5, 624.9659,-1.039395240
204,204,108178,23,2,NA, 0, 2,"",1,"",5,5,5,5,2,4,5,6,6,4,6,4,4.750000, 0.37247475,-0.16666667,4.666667,-0.40404040, 0.170454545,4,4,5,4,5,4.4, 0.74848485,4,4,2,4,4,3.6,-0.13939394, 0.8,4.0, 0.88787879, 0.304545455,6,7,7,7,7,7,7,6,7,6,6.7, 1.57575758,NA,"positive","tidy",0.7276070,1,  204,35, 0.375,0.7276070,6.589761,204, 0.5, 727.6070,-0.751125718
204,204,108178,23,2,NA, 0, 2,"",1,"",5,5,5,5,2,4,5,6,6,4,6,4,4.750000, 0.37247475,-0.16666667,4.666667,-0.40404040, 0.170454545,4,4,5,4,5,4.4, 0.74848485,4,4,2,4,4,3.6,-0.13939394, 0.8,4.0, 0.88787879, 0.304545455,6,7,7,7,7,7,7,6,7,6,6.7, 1.57575758,NA,"negative","worrying",0.9091249,1,  204,36, 0.400,0.9091249,6.812482,204,-0.5, 909.1249,-0.241329372
204,204,108178,23,2,NA, 0, 2,"",1,"",5,5,5,5,2,4,5,6,6,4,6,4,4.750000, 0.37247475,-0.16666667,4.666667,-0.40404040, 0.170454545,4,4,5,4,5,4.4, 0.74848485,4,4,2,4,4,3.6,-0.13939394, 0.8,4.0, 0.88787879, 0.304545455,6,7,7,7,7,7,7,6,7,6,6.7, 1.57575758,NA,"positive","talented",0.6425631,1,  204,37, 0.425,0.6425631,6.465465,204, 0.5, 642.5631,-0.989973168
204,204,108178,23,2,NA, 0, 2,"",1,"",5,5,5,5,2,4,5,6,6,4,6,4,4.750000, 0.37247475,-0.16666667,4.666667,-0.40404040, 0.170454545,4,4,5,4,5,4.4, 0.74848485,4,4,2,4,4,3.6,-0.13939394, 0.8,4.0, 0.88787879, 0.304545455,6,7,7,7,7,7,7,6,7,6,6.7, 1.57575758,NA,"positive","confident",1.0420551,1,  204,38, 0.450,1.0420551,6.948950,204, 0.5,1042.0551, 0.132007876
204,204,108178,23,2,NA, 0, 2,"",1,"",5,5,5,5,2,4,5,6,6,4,6,4,4.750000, 0.37247475,-0.16666667,4.666667,-0.40404040, 0.170454545,4,4,5,4,5,4.4, 0.74848485,4,4,2,4,4,3.6,-0.13939394, 0.8,4.0, 0.88787879, 0.304545455,6,7,7,7,7,7,7,6,7,6,6.7, 1.57575758,NA,"positive","idealistic",0.6747780,1,  204,40, 0.500,0.6747780,6.514384,204, 0.5, 674.7780,-0.899497057
205,205,105139,18,2,NA, 0, 5,"",6,"In a relationship",6,5,6,3,4,4,5,5,3,4,6,5,4.666667, 0.28914141, 0.75000000,5.041667, 0.51262626, 0.545454545,5,4,4,4,4,4.2, 0.54848485,2,2,2,3,2,2.2,-1.53939394, 2.0,3.2, 2.08787879,-0.495454545,5,6,6,6,6,6,6,6,5,6,5.8, 0.67575758,NA,"positive","courageous",0.5918319,1,  205, 1,-0.475,0.5918319,6.383223,205, 0.5, 591.8319,-1.132452670
205,205,105139,18,2,NA, 0, 5,"",6,"In a relationship",6,5,6,3,4,4,5,5,3,4,6,5,4.666667, 0.28914141, 0.75000000,5.041667, 0.51262626, 0.545454545,5,4,4,4,4,4.2, 0.54848485,2,2,2,3,2,2.2,-1.53939394, 2.0,3.2, 2.08787879,-0.495454545,5,6,6,6,6,6,6,6,5,6,5.8, 0.67575758,NA,"positive","persistent",0.9915349,1,  205, 2,-0.450,0.9915349,6.899254,205, 0.5, 991.5349,-0.009879028
205,205,105139,18,2,NA, 0, 5,"",6,"In a relationship",6,5,6,3,4,4,5,5,3,4,6,5,4.666667, 0.28914141, 0.75000000,5.041667, 0.51262626, 0.545454545,5,4,4,4,4,4.2, 0.54848485,2,2,2,3,2,2.2,-1.53939394, 2.0,3.2, 2.08787879,-0.495454545,5,6,6,6,6,6,6,6,5,6,5.8, 0.67575758,NA,"positive","idealistic",0.8086619,1,  205, 4,-0.400,0.8086619,6.695381,205, 0.5, 808.6619,-0.523481398
205,205,105139,18,2,NA, 0, 5,"",6,"In a relationship",6,5,6,3,4,4,5,5,3,4,6,5,4.666667, 0.28914141, 0.75000000,5.041667, 0.51262626, 0.545454545,5,4,4,4,4,4.2, 0.54848485,2,2,2,3,2,2.2,-1.53939394, 2.0,3.2, 2.08787879,-0.495454545,5,6,6,6,6,6,6,6,5,6,5.8, 0.67575758,NA,"negative","messy",0.9102988,1,  205, 5,-0.375,0.9102988,6.813773,205,-0.5, 910.2988,-0.238032246
205,205,105139,18,2,NA, 0, 5,"",6,"In a relationship",6,5,6,3,4,4,5,5,3,4,6,5,4.666667, 0.28914141, 0.75000000,5.041667, 0.51262626, 0.545454545,5,4,4,4,4,4.2, 0.54848485,2,2,2,3,2,2.2,-1.53939394, 2.0,3.2, 2.08787879,-0.495454545,5,6,6,6,6,6,6,6,5,6,5.8, 0.67575758,NA,"positive","wise",0.6939540,1,  205, 8,-0.300,0.6939540,6.542406,205, 0.5, 693.9540,-0.845640875
205,205,105139,18,2,NA, 0, 5,"",6,"In a relationship",6,5,6,3,4,4,5,5,3,4,6,5,4.666667, 0.28914141, 0.75000000,5.041667, 0.51262626, 0.545454545,5,4,4,4,4,4.2, 0.54848485,2,2,2,3,2,2.2,-1.53939394, 2.0,3.2, 2.08787879,-0.495454545,5,6,6,6,6,6,6,6,5,6,5.8, 0.67575758,NA,"positive","enthusiastic",0.6244199,1,  205, 9,-0.275,0.6244199,6.436823,205, 0.5, 624.4199,-1.040928630
205,205,105139,18,2,NA, 0, 5,"",6,"In a relationship",6,5,6,3,4,4,5,5,3,4,6,5,4.666667, 0.28914141, 0.75000000,5.041667, 0.51262626, 0.545454545,5,4,4,4,4,4.2, 0.54848485,2,2,2,3,2,2.2,-1.53939394, 2.0,3.2, 2.08787879,-0.495454545,5,6,6,6,6,6,6,6,5,6,5.8, 0.67575758,NA,"positive","proud",0.4936781,1,  205,10,-0.250,0.4936781,6.201884,205, 0.5, 493.6781,-1.408119591
205,205,105139,18,2,NA, 0, 5,"",6,"In a relationship",6,5,6,3,4,4,5,5,3,4,6,5,4.666667, 0.28914141, 0.75000000,5.041667, 0.51262626, 0.545454545,5,4,4,4,4,4.2, 0.54848485,2,2,2,3,2,2.2,-1.53939394, 2.0,3.2, 2.08787879,-0.495454545,5,6,6,6,6,6,6,6,5,6,5.8, 0.67575758,NA,"positive","trusting",0.5919960,1,  205,12,-0.200,0.5919960,6.383500,205, 0.5, 591.9960,-1.131991983
205,205,105139,18,2,NA, 0, 5,"",6,"In a relationship",6,5,6,3,4,4,5,5,3,4,6,5,4.666667, 0.28914141, 0.75000000,5.041667, 0.51262626, 0.545454545,5,4,4,4,4,4.2, 0.54848485,2,2,2,3,2,2.2,-1.53939394, 2.0,3.2, 2.08787879,-0.495454545,5,6,6,6,6,6,6,6,5,6,5.8, 0.67575758,NA,"positive","brilliant",0.5584509,1,  205,14,-0.150,0.5584509,6.325167,205, 0.5, 558.4509,-1.226203811
205,205,105139,18,2,NA, 0, 5,"",6,"In a relationship",6,5,6,3,4,4,5,5,3,4,6,5,4.666667, 0.28914141, 0.75000000,5.041667, 0.51262626, 0.545454545,5,4,4,4,4,4.2, 0.54848485,2,2,2,3,2,2.2,-1.53939394, 2.0,3.2, 2.08787879,-0.495454545,5,6,6,6,6,6,6,6,5,6,5.8, 0.67575758,NA,"positive","artistic",0.6592350,1,  205,15,-0.125,0.6592350,6.491080,205, 0.5, 659.2350,-0.943149827
205,205,105139,18,2,NA, 0, 5,"",6,"In a relationship",6,5,6,3,4,4,5,5,3,4,6,5,4.666667, 0.28914141, 0.75000000,5.041667, 0.51262626, 0.545454545,5,4,4,4,4,4.2, 0.54848485,2,2,2,3,2,2.2,-1.53939394, 2.0,3.2, 2.08787879,-0.495454545,5,6,6,6,6,6,6,6,5,6,5.8, 0.67575758,NA,"positive","inventive",0.6088481,1,  205,16,-0.100,0.6088481,6.411569,205, 0.5, 608.8481,-1.084662423
205,205,105139,18,2,NA, 0, 5,"",6,"In a relationship",6,5,6,3,4,4,5,5,3,4,6,5,4.666667, 0.28914141, 0.75000000,5.041667, 0.51262626, 0.545454545,5,4,4,4,4,4.2, 0.54848485,2,2,2,3,2,2.2,-1.53939394, 2.0,3.2, 2.08787879,-0.495454545,5,6,6,6,6,6,6,6,5,6,5.8, 0.67575758,NA,"positive","ambitious",0.6589601,1,  205,18,-0.050,0.6589601,6.490663,205, 0.5, 658.9601,-0.943921881
205,205,105139,18,2,NA, 0, 5,"",6,"In a relationship",6,5,6,3,4,4,5,5,3,4,6,5,4.666667, 0.28914141, 0.75000000,5.041667, 0.51262626, 0.545454545,5,4,4,4,4,4.2, 0.54848485,2,2,2,3,2,2.2,-1.53939394, 2.0,3.2, 2.08787879,-0.495454545,5,6,6,6,6,6,6,6,5,6,5.8, 0.67575758,NA,"negative","anxious",0.9594171,1,  205,19,-0.025,0.9594171,6.866326,205,-0.5, 959.4171,-0.100082608
205,205,105139,18,2,NA, 0, 5,"",6,"In a relationship",6,5,6,3,4,4,5,5,3,4,6,5,4.666667, 0.28914141, 0.75000000,5.041667, 0.51262626, 0.545454545,5,4,4,4,4,4.2, 0.54848485,2,2,2,3,2,2.2,-1.53939394, 2.0,3.2, 2.08787879,-0.495454545,5,6,6,6,6,6,6,6,5,6,5.8, 0.67575758,NA,"positive","talented",0.6086180,1,  205,21, 0.025,0.6086180,6.411191,205, 0.5, 608.6180,-1.085308590
205,205,105139,18,2,NA, 0, 5,"",6,"In a relationship",6,5,6,3,4,4,5,5,3,4,6,5,4.666667, 0.28914141, 0.75000000,5.041667, 0.51262626, 0.545454545,5,4,4,4,4,4.2, 0.54848485,2,2,2,3,2,2.2,-1.53939394, 2.0,3.2, 2.08787879,-0.495454545,5,6,6,6,6,6,6,6,5,6,5.8, 0.67575758,NA,"negative","stubborn",0.8259101,1,  205,23, 0.075,0.8259101,6.716486,205,-0.5, 825.9101,-0.475039628
205,205,105139,18,2,NA, 0, 5,"",6,"In a relationship",6,5,6,3,4,4,5,5,3,4,6,5,4.666667, 0.28914141, 0.75000000,5.041667, 0.51262626, 0.545454545,5,4,4,4,4,4.2, 0.54848485,2,2,2,3,2,2.2,-1.53939394, 2.0,3.2, 2.08787879,-0.495454545,5,6,6,6,6,6,6,6,5,6,5.8, 0.67575758,NA,"positive","confident",0.6733608,1,  205,26, 0.150,0.6733608,6.512281,205, 0.5, 673.3608,-0.903477179
205,205,105139,18,2,NA, 0, 5,"",6,"In a relationship",6,5,6,3,4,4,5,5,3,4,6,5,4.666667, 0.28914141, 0.75000000,5.041667, 0.51262626, 0.545454545,5,4,4,4,4,4.2, 0.54848485,2,2,2,3,2,2.2,-1.53939394, 2.0,3.2, 2.08787879,-0.495454545,5,6,6,6,6,6,6,6,5,6,5.8, 0.67575758,NA,"positive","outgoing",0.6259530,1,  205,30, 0.250,0.6259530,6.439275,205, 0.5, 625.9530,-1.036623083
205,205,105139,18,2,NA, 0, 5,"",6,"In a relationship",6,5,6,3,4,4,5,5,3,4,6,5,4.666667, 0.28914141, 0.75000000,5.041667, 0.51262626, 0.545454545,5,4,4,4,4,4.2, 0.54848485,2,2,2,3,2,2.2,-1.53939394, 2.0,3.2, 2.08787879,-0.495454545,5,6,6,6,6,6,6,6,5,6,5.8, 0.67575758,NA,"negative","impulsive",0.6082752,1,  205,31, 0.275,0.6082752,6.410627,205,-0.5, 608.2752,-1.086271480
205,205,105139,18,2,NA, 0, 5,"",6,"In a relationship",6,5,6,3,4,4,5,5,3,4,6,5,4.666667, 0.28914141, 0.75000000,5.041667, 0.51262626, 0.545454545,5,4,4,4,4,4.2, 0.54848485,2,2,2,3,2,2.2,-1.53939394, 2.0,3.2, 2.08787879,-0.495454545,5,6,6,6,6,6,6,6,5,6,5.8, 0.67575758,NA,"negative","cynical",1.4761381,1,  205,38, 0.450,1.4761381,7.297185,205,-0.5,1476.1381, 1.351138297
206,206,104953,18,2,NA, 1, 5,"",1,"",4,5,5,4,4,5,6,5,6,3,4,5,4.666667, 0.28914141, 0.08333333,4.708333,-0.15404040, 0.212121212,4,4,4,3,4,3.8, 0.14848485,4,3,4,4,4,3.8, 0.06060606, 0.0,3.8, 0.08787879, 0.104545455,5,2,5,5,5,2,5,2,3,6,4.0,-1.12424242,NA,"positive","inventive",1.6922421,1,  206, 1,-0.475,1.6922421,7.433810,206, 0.5,1692.2421, 1.958070629
206,206,104953,18,2,NA, 1, 5,"",1,"",4,5,5,4,4,5,6,5,6,3,4,5,4.666667, 0.28914141, 0.08333333,4.708333,-0.15404040, 0.212121212,4,4,4,3,4,3.8, 0.14848485,4,3,4,4,4,3.8, 0.06060606, 0.0,3.8, 0.08787879, 0.104545455,5,2,5,5,5,2,5,2,3,6,4.0,-1.12424242,NA,"positive","persistent",1.1079099,1,  206, 2,-0.450,1.1079099,7.010231,206, 0.5,1107.9099, 0.316962316
206,206,104953,18,2,NA, 1, 5,"",1,"",4,5,5,4,4,5,6,5,6,3,4,5,4.666667, 0.28914141, 0.08333333,4.708333,-0.15404040, 0.212121212,4,4,4,3,4,3.8, 0.14848485,4,3,4,4,4,3.8, 0.06060606, 0.0,3.8, 0.08787879, 0.104545455,5,2,5,5,5,2,5,2,3,6,4.0,-1.12424242,NA,"positive","wise",0.7777832,1,  206, 3,-0.425,0.7777832,6.656448,206, 0.5, 777.7832,-0.610205054
206,206,104953,18,2,NA, 1, 5,"",1,"",4,5,5,4,4,5,6,5,6,3,4,5,4.666667, 0.28914141, 0.08333333,4.708333,-0.15404040, 0.212121212,4,4,4,3,4,3.8, 0.14848485,4,3,4,4,4,3.8, 0.06060606, 0.0,3.8, 0.08787879, 0.104545455,5,2,5,5,5,2,5,2,3,6,4.0,-1.12424242,NA,"positive","proud",0.5437751,1,  206, 4,-0.400,0.5437751,6.298536,206, 0.5, 543.7751,-1.267421233
206,206,104953,18,2,NA, 1, 5,"",1,"",4,5,5,4,4,5,6,5,6,3,4,5,4.666667, 0.28914141, 0.08333333,4.708333,-0.15404040, 0.212121212,4,4,4,3,4,3.8, 0.14848485,4,3,4,4,4,3.8, 0.06060606, 0.0,3.8, 0.08787879, 0.104545455,5,2,5,5,5,2,5,2,3,6,4.0,-1.12424242,NA,"negative","timid",1.0101919,1,  206, 5,-0.375,1.0101919,6.917896,206,-0.5,1010.1919, 0.042519429
206,206,104953,18,2,NA, 1, 5,"",1,"",4,5,5,4,4,5,6,5,6,3,4,5,4.666667, 0.28914141, 0.08333333,4.708333,-0.15404040, 0.212121212,4,4,4,3,4,3.8, 0.14848485,4,3,4,4,4,3.8, 0.06060606, 0.0,3.8, 0.08787879, 0.104545455,5,2,5,5,5,2,5,2,3,6,4.0,-1.12424242,NA,"positive","confident",0.7588880,1,  206, 6,-0.350,0.7588880,6.631854,206, 0.5, 758.8880,-0.663272444
206,206,104953,18,2,NA, 1, 5,"",1,"",4,5,5,4,4,5,6,5,6,3,4,5,4.666667, 0.28914141, 0.08333333,4.708333,-0.15404040, 0.212121212,4,4,4,3,4,3.8, 0.14848485,4,3,4,4,4,3.8, 0.06060606, 0.0,3.8, 0.08787879, 0.104545455,5,2,5,5,5,2,5,2,3,6,4.0,-1.12424242,NA,"negative","tense",1.2264810,1,  206, 8,-0.300,1.2264810,7.111904,206,-0.5,1226.4810, 0.649971373
206,206,104953,18,2,NA, 1, 5,"",1,"",4,5,5,4,4,5,6,5,6,3,4,5,4.666667, 0.28914141, 0.08333333,4.708333,-0.15404040, 0.212121212,4,4,4,3,4,3.8, 0.14848485,4,3,4,4,4,3.8, 0.06060606, 0.0,3.8, 0.08787879, 0.104545455,5,2,5,5,5,2,5,2,3,6,4.0,-1.12424242,NA,"positive","idealistic",0.9919190,1,  206, 9,-0.275,0.9919190,6.899641,206, 0.5, 991.9190,-0.008800295
206,206,104953,18,2,NA, 1, 5,"",1,"",4,5,5,4,4,5,6,5,6,3,4,5,4.666667, 0.28914141, 0.08333333,4.708333,-0.15404040, 0.212121212,4,4,4,3,4,3.8, 0.14848485,4,3,4,4,4,3.8, 0.06060606, 0.0,3.8, 0.08787879, 0.104545455,5,2,5,5,5,2,5,2,3,6,4.0,-1.12424242,NA,"positive","orderly",1.9929030,1,  206,10,-0.250,1.9929030,7.597348,206, 0.5,1992.9030, 2.802482410
206,206,104953,18,2,NA, 1, 5,"",1,"",4,5,5,4,4,5,6,5,6,3,4,5,4.666667, 0.28914141, 0.08333333,4.708333,-0.15404040, 0.212121212,4,4,4,3,4,3.8, 0.14848485,4,3,4,4,4,3.8, 0.06060606, 0.0,3.8, 0.08787879, 0.104545455,5,2,5,5,5,2,5,2,3,6,4.0,-1.12424242,NA,"positive","disciplined",0.9580479,1,  206,11,-0.225,0.9580479,6.864898,206, 0.5, 958.0479,-0.103928140
206,206,104953,18,2,NA, 1, 5,"",1,"",4,5,5,4,4,5,6,5,6,3,4,5,4.666667, 0.28914141, 0.08333333,4.708333,-0.15404040, 0.212121212,4,4,4,3,4,3.8, 0.14848485,4,3,4,4,4,3.8, 0.06060606, 0.0,3.8, 0.08787879, 0.104545455,5,2,5,5,5,2,5,2,3,6,4.0,-1.12424242,NA,"positive","tidy",1.2607460,1,  206,18,-0.050,1.2607460,7.139459,206, 0.5,1260.7460, 0.746205401
206,206,104953,18,2,NA, 1, 5,"",1,"",4,5,5,4,4,5,6,5,6,3,4,5,4.666667, 0.28914141, 0.08333333,4.708333,-0.15404040, 0.212121212,4,4,4,3,4,3.8, 0.14848485,4,3,4,4,4,3.8, 0.06060606, 0.0,3.8, 0.08787879, 0.104545455,5,2,5,5,5,2,5,2,3,6,4.0,-1.12424242,NA,"positive","enthusiastic",2.0572989,1,  206,19,-0.025,2.0572989,7.629149,206, 0.5,2057.2989, 2.983339549
206,206,104953,18,2,NA, 1, 5,"",1,"",4,5,5,4,4,5,6,5,6,3,4,5,4.666667, 0.28914141, 0.08333333,4.708333,-0.15404040, 0.212121212,4,4,4,3,4,3.8, 0.14848485,4,3,4,4,4,3.8, 0.06060606, 0.0,3.8, 0.08787879, 0.104545455,5,2,5,5,5,2,5,2,3,6,4.0,-1.12424242,NA,"positive","ambitious",0.9587479,1,  206,21, 0.025,0.9587479,6.865628,206, 0.5, 958.7479,-0.101962185
206,206,104953,18,2,NA, 1, 5,"",1,"",4,5,5,4,4,5,6,5,6,3,4,5,4.666667, 0.28914141, 0.08333333,4.708333,-0.15404040, 0.212121212,4,4,4,3,4,3.8, 0.14848485,4,3,4,4,4,3.8, 0.06060606, 0.0,3.8, 0.08787879, 0.104545455,5,2,5,5,5,2,5,2,3,6,4.0,-1.12424242,NA,"negative","stubborn",1.0258090,1,  206,22, 0.050,1.0258090,6.933237,206,-0.5,1025.8090, 0.086380447
206,206,104953,18,2,NA, 1, 5,"",1,"",4,5,5,4,4,5,6,5,6,3,4,5,4.666667, 0.28914141, 0.08333333,4.708333,-0.15404040, 0.212121212,4,4,4,3,4,3.8, 0.14848485,4,3,4,4,4,3.8, 0.06060606, 0.0,3.8, 0.08787879, 0.104545455,5,2,5,5,5,2,5,2,3,6,4.0,-1.12424242,NA,"positive","artistic",1.3258300,1,  206,23, 0.075,1.3258300,7.189794,206, 0.5,1325.8300, 0.928995014
206,206,104953,18,2,NA, 1, 5,"",1,"",4,5,5,4,4,5,6,5,6,3,4,5,4.666667, 0.28914141, 0.08333333,4.708333,-0.15404040, 0.212121212,4,4,4,3,4,3.8, 0.14848485,4,3,4,4,4,3.8, 0.06060606, 0.0,3.8, 0.08787879, 0.104545455,5,2,5,5,5,2,5,2,3,6,4.0,-1.12424242,NA,"negative","cynical",1.1427891,1,  206,25, 0.125,1.1427891,7.041227,206,-0.5,1142.7891, 0.414921240
206,206,104953,18,2,NA, 1, 5,"",1,"",4,5,5,4,4,5,6,5,6,3,4,5,4.666667, 0.28914141, 0.08333333,4.708333,-0.15404040, 0.212121212,4,4,4,3,4,3.8, 0.14848485,4,3,4,4,4,3.8, 0.06060606, 0.0,3.8, 0.08787879, 0.104545455,5,2,5,5,5,2,5,2,3,6,4.0,-1.12424242,NA,"negative","fearful",0.9574339,1,  206,26, 0.150,0.9574339,6.864257,206,-0.5, 957.4339,-0.105652368
206,206,104953,18,2,NA, 1, 5,"",1,"",4,5,5,4,4,5,6,5,6,3,4,5,4.666667, 0.28914141, 0.08333333,4.708333,-0.15404040, 0.212121212,4,4,4,3,4,3.8, 0.14848485,4,3,4,4,4,3.8, 0.06060606, 0.0,3.8, 0.08787879, 0.104545455,5,2,5,5,5,2,5,2,3,6,4.0,-1.12424242,NA,"negative","impulsive",0.8087561,1,  206,27, 0.175,0.8087561,6.695497,206,-0.5, 808.7561,-0.523216905
206,206,104953,18,2,NA, 1, 5,"",1,"",4,5,5,4,4,5,6,5,6,3,4,5,4.666667, 0.28914141, 0.08333333,4.708333,-0.15404040, 0.212121212,4,4,4,3,4,3.8, 0.14848485,4,3,4,4,4,3.8, 0.06060606, 0.0,3.8, 0.08787879, 0.104545455,5,2,5,5,5,2,5,2,3,6,4.0,-1.12424242,NA,"negative","withdrawn",1.2088499,1,  206,28, 0.200,1.2088499,7.097425,206,-0.5,1208.8499, 0.600454219
206,206,104953,18,2,NA, 1, 5,"",1,"",4,5,5,4,4,5,6,5,6,3,4,5,4.666667, 0.28914141, 0.08333333,4.708333,-0.15404040, 0.212121212,4,4,4,3,4,3.8, 0.14848485,4,3,4,4,4,3.8, 0.06060606, 0.0,3.8, 0.08787879, 0.104545455,5,2,5,5,5,2,5,2,3,6,4.0,-1.12424242,NA,"positive","neat",0.6444421,1,  206,29, 0.225,0.6444421,6.468385,206, 0.5, 644.4421,-0.984696028
206,206,104953,18,2,NA, 1, 5,"",1,"",4,5,5,4,4,5,6,5,6,3,4,5,4.666667, 0.28914141, 0.08333333,4.708333,-0.15404040, 0.212121212,4,4,4,3,4,3.8, 0.14848485,4,3,4,4,4,3.8, 0.06060606, 0.0,3.8, 0.08787879, 0.104545455,5,2,5,5,5,2,5,2,3,6,4.0,-1.12424242,NA,"negative","childish",1.5757730,1,  206,30, 0.250,1.5757730,7.362501,206,-0.5,1575.7730, 1.630964793
206,206,104953,18,2,NA, 1, 5,"",1,"",4,5,5,4,4,5,6,5,6,3,4,5,4.666667, 0.28914141, 0.08333333,4.708333,-0.15404040, 0.212121212,4,4,4,3,4,3.8, 0.14848485,4,3,4,4,4,3.8, 0.06060606, 0.0,3.8, 0.08787879, 0.104545455,5,2,5,5,5,2,5,2,3,6,4.0,-1.12424242,NA,"negative","anxious",0.9928381,1,  206,31, 0.275,0.9928381,6.900568,206,-0.5, 992.8381,-0.006218977
206,206,104953,18,2,NA, 1, 5,"",1,"",4,5,5,4,4,5,6,5,6,3,4,5,4.666667, 0.28914141, 0.08333333,4.708333,-0.15404040, 0.212121212,4,4,4,3,4,3.8, 0.14848485,4,3,4,4,4,3.8, 0.06060606, 0.0,3.8, 0.08787879, 0.104545455,5,2,5,5,5,2,5,2,3,6,4.0,-1.12424242,NA,"positive","courageous",1.9916930,1,  206,32, 0.300,1.9916930,7.596740,206, 0.5,1991.6930, 2.799084174
206,206,104953,18,2,NA, 1, 5,"",1,"",4,5,5,4,4,5,6,5,6,3,4,5,4.666667, 0.28914141, 0.08333333,4.708333,-0.15404040, 0.212121212,4,4,4,3,4,3.8, 0.14848485,4,3,4,4,4,3.8, 0.06060606, 0.0,3.8, 0.08787879, 0.104545455,5,2,5,5,5,2,5,2,3,6,4.0,-1.12424242,NA,"negative","insecure",1.0754590,1,  206,33, 0.325,1.0754590,6.980503,206,-0.5,1075.4590, 0.225823296
206,206,104953,18,2,NA, 1, 5,"",1,"",4,5,5,4,4,5,6,5,6,3,4,5,4.666667, 0.28914141, 0.08333333,4.708333,-0.15404040, 0.212121212,4,4,4,3,4,3.8, 0.14848485,4,3,4,4,4,3.8, 0.06060606, 0.0,3.8, 0.08787879, 0.104545455,5,2,5,5,5,2,5,2,3,6,4.0,-1.12424242,NA,"positive","trusting",0.9926250,1,  206,37, 0.425,0.9926250,6.900353,206, 0.5, 992.6250,-0.006817602
206,206,104953,18,2,NA, 1, 5,"",1,"",4,5,5,4,4,5,6,5,6,3,4,5,4.666667, 0.28914141, 0.08333333,4.708333,-0.15404040, 0.212121212,4,4,4,3,4,3.8, 0.14848485,4,3,4,4,4,3.8, 0.06060606, 0.0,3.8, 0.08787879, 0.104545455,5,2,5,5,5,2,5,2,3,6,4.0,-1.12424242,NA,"positive","outgoing",1.7759292,1,  206,40, 0.500,1.7759292,7.482079,206, 0.5,1775.9292, 2.193107368
207,207, 97708,18,1,NA, 0, 5,"",1,"",4,5,5,6,3,6,5,6,6,5,5,5,5.083333, 0.70580808,-2.50000000,3.833333,-2.73737374,-0.662878788,3,1,3,3,2,2.4,-1.25151515,4,5,2,4,4,3.8, 0.06060606,-1.4,3.1,-1.31212121,-0.595454545,5,2,5,4,4,3,5,3,4,4,3.9,-1.22424242,NA,"negative","tense",1.3438821,1,  207, 1,-0.475,1.3438821,7.203318,207,-0.5,1343.8821, 0.979694688
207,207, 97708,18,1,NA, 0, 5,"",1,"",4,5,5,6,3,6,5,6,6,5,5,5,5.083333, 0.70580808,-2.50000000,3.833333,-2.73737374,-0.662878788,3,1,3,3,2,2.4,-1.25151515,4,5,2,4,4,3.8, 0.06060606,-1.4,3.1,-1.31212121,-0.595454545,5,2,5,4,4,3,5,3,4,4,3.9,-1.22424242,NA,"positive","orderly",0.7429700,1,  207, 2,-0.450,0.7429700,6.610656,207, 0.5, 742.9700,-0.707978498
207,207, 97708,18,1,NA, 0, 5,"",1,"",4,5,5,6,3,6,5,6,6,5,5,5,5.083333, 0.70580808,-2.50000000,3.833333,-2.73737374,-0.662878788,3,1,3,3,2,2.4,-1.25151515,4,5,2,4,4,3.8, 0.06060606,-1.4,3.1,-1.31212121,-0.595454545,5,2,5,4,4,3,5,3,4,4,3.9,-1.22424242,NA,"negative","cynical",0.8928530,1,  207, 4,-0.400,0.8928530,6.794422,207,-0.5, 892.8530,-0.287029117
207,207, 97708,18,1,NA, 0, 5,"",1,"",4,5,5,6,3,6,5,6,6,5,5,5,5.083333, 0.70580808,-2.50000000,3.833333,-2.73737374,-0.662878788,3,1,3,3,2,2.4,-1.25151515,4,5,2,4,4,3.8, 0.06060606,-1.4,3.1,-1.31212121,-0.595454545,5,2,5,4,4,3,5,3,4,4,3.9,-1.22424242,NA,"positive","disciplined",1.3080940,1,  207, 5,-0.375,1.3080940,7.176326,207, 0.5,1308.0940, 0.879183235
207,207, 97708,18,1,NA, 0, 5,"",1,"",4,5,5,6,3,6,5,6,6,5,5,5,5.083333, 0.70580808,-2.50000000,3.833333,-2.73737374,-0.662878788,3,1,3,3,2,2.4,-1.25151515,4,5,2,4,4,3.8, 0.06060606,-1.4,3.1,-1.31212121,-0.595454545,5,2,5,4,4,3,5,3,4,4,3.9,-1.22424242,NA,"positive","trusting",1.4256101,1,  207,11,-0.225,1.4256101,7.262355,207, 0.5,1425.6101, 1.209229296
207,207, 97708,18,1,NA, 0, 5,"",1,"",4,5,5,6,3,6,5,6,6,5,5,5,5.083333, 0.70580808,-2.50000000,3.833333,-2.73737374,-0.662878788,3,1,3,3,2,2.4,-1.25151515,4,5,2,4,4,3.8, 0.06060606,-1.4,3.1,-1.31212121,-0.595454545,5,2,5,4,4,3,5,3,4,4,3.9,-1.22424242,NA,"negative","inhibited",1.0253730,1,  207,14,-0.150,1.0253730,6.932812,207,-0.5,1025.3730, 0.085155742
207,207, 97708,18,1,NA, 0, 5,"",1,"",4,5,5,6,3,6,5,6,6,5,5,5,5.083333, 0.70580808,-2.50000000,3.833333,-2.73737374,-0.662878788,3,1,3,3,2,2.4,-1.25151515,4,5,2,4,4,3.8, 0.06060606,-1.4,3.1,-1.31212121,-0.595454545,5,2,5,4,4,3,5,3,4,4,3.9,-1.22424242,NA,"negative","childish",1.0091331,1,  207,16,-0.100,1.0091331,6.916847,207,-0.5,1009.1331, 0.039545724
207,207, 97708,18,1,NA, 0, 5,"",1,"",4,5,5,6,3,6,5,6,6,5,5,5,5.083333, 0.70580808,-2.50000000,3.833333,-2.73737374,-0.662878788,3,1,3,3,2,2.4,-1.25151515,4,5,2,4,4,3.8, 0.06060606,-1.4,3.1,-1.31212121,-0.595454545,5,2,5,4,4,3,5,3,4,4,3.9,-1.22424242,NA,"positive","tender",1.2096670,1,  207,17,-0.075,1.2096670,7.098100,207, 0.5,1209.6670, 0.602748947
207,207, 97708,18,1,NA, 0, 5,"",1,"",4,5,5,6,3,6,5,6,6,5,5,5,5.083333, 0.70580808,-2.50000000,3.833333,-2.73737374,-0.662878788,3,1,3,3,2,2.4,-1.25151515,4,5,2,4,4,3.8, 0.06060606,-1.4,3.1,-1.31212121,-0.595454545,5,2,5,4,4,3,5,3,4,4,3.9,-1.22424242,NA,"negative","stubborn",1.3757429,1,  207,18,-0.050,1.3757429,7.226749,207,-0.5,1375.7429, 1.069176436
207,207, 97708,18,1,NA, 0, 5,"",1,"",4,5,5,6,3,6,5,6,6,5,5,5,5.083333, 0.70580808,-2.50000000,3.833333,-2.73737374,-0.662878788,3,1,3,3,2,2.4,-1.25151515,4,5,2,4,4,3.8, 0.06060606,-1.4,3.1,-1.31212121,-0.595454545,5,2,5,4,4,3,5,3,4,4,3.9,-1.22424242,NA,"positive","inventive",1.5588830,1,  207,20, 0.000,1.5588830,7.351725,207, 0.5,1558.8830, 1.583528765
207,207, 97708,18,1,NA, 0, 5,"",1,"",4,5,5,6,3,6,5,6,6,5,5,5,5.083333, 0.70580808,-2.50000000,3.833333,-2.73737374,-0.662878788,3,1,3,3,2,2.4,-1.25151515,4,5,2,4,4,3.8, 0.06060606,-1.4,3.1,-1.31212121,-0.595454545,5,2,5,4,4,3,5,3,4,4,3.9,-1.22424242,NA,"negative","forgetful",0.9750550,1,  207,21, 0.025,0.9750550,6.882494,207,-0.5, 975.0550,-0.056163338
207,207, 97708,18,1,NA, 0, 5,"",1,"",4,5,5,6,3,6,5,6,6,5,5,5,5.083333, 0.70580808,-2.50000000,3.833333,-2.73737374,-0.662878788,3,1,3,3,2,2.4,-1.25151515,4,5,2,4,4,3.8, 0.06060606,-1.4,3.1,-1.31212121,-0.595454545,5,2,5,4,4,3,5,3,4,4,3.9,-1.22424242,NA,"positive","neat",1.0941770,1,  207,22, 0.050,1.0941770,6.997758,207, 0.5,1094.1770, 0.278393174
207,207, 97708,18,1,NA, 0, 5,"",1,"",4,5,5,6,3,6,5,6,6,5,5,5,5.083333, 0.70580808,-2.50000000,3.833333,-2.73737374,-0.662878788,3,1,3,3,2,2.4,-1.25151515,4,5,2,4,4,3.8, 0.06060606,-1.4,3.1,-1.31212121,-0.595454545,5,2,5,4,4,3,5,3,4,4,3.9,-1.22424242,NA,"positive","proud",1.3935161,1,  207,23, 0.075,1.3935161,7.239585,207, 0.5,1393.5161, 1.119092676
207,207, 97708,18,1,NA, 0, 5,"",1,"",4,5,5,6,3,6,5,6,6,5,5,5,5.083333, 0.70580808,-2.50000000,3.833333,-2.73737374,-0.662878788,3,1,3,3,2,2.4,-1.25151515,4,5,2,4,4,3.8, 0.06060606,-1.4,3.1,-1.31212121,-0.595454545,5,2,5,4,4,3,5,3,4,4,3.9,-1.22424242,NA,"negative","boring",1.4262471,1,  207,26, 0.150,1.4262471,7.262802,207,-0.5,1426.2471, 1.211018477
207,207, 97708,18,1,NA, 0, 5,"",1,"",4,5,5,6,3,6,5,6,6,5,5,5,5.083333, 0.70580808,-2.50000000,3.833333,-2.73737374,-0.662878788,3,1,3,3,2,2.4,-1.25151515,4,5,2,4,4,3.8, 0.06060606,-1.4,3.1,-1.31212121,-0.595454545,5,2,5,4,4,3,5,3,4,4,3.9,-1.22424242,NA,"negative","antisocial",0.8062348,1,  207,27, 0.175,0.8062348,6.692375,207,-0.5, 806.2348,-0.530297957
207,207, 97708,18,1,NA, 0, 5,"",1,"",4,5,5,6,3,6,5,6,6,5,5,5,5.083333, 0.70580808,-2.50000000,3.833333,-2.73737374,-0.662878788,3,1,3,3,2,2.4,-1.25151515,4,5,2,4,4,3.8, 0.06060606,-1.4,3.1,-1.31212121,-0.595454545,5,2,5,4,4,3,5,3,4,4,3.9,-1.22424242,NA,"negative","timid",0.8271909,1,  207,28, 0.200,0.8271909,6.718035,207,-0.5, 827.1909,-0.471442518
207,207, 97708,18,1,NA, 0, 5,"",1,"",4,5,5,6,3,6,5,6,6,5,5,5,5.083333, 0.70580808,-2.50000000,3.833333,-2.73737374,-0.662878788,3,1,3,3,2,2.4,-1.25151515,4,5,2,4,4,3.8, 0.06060606,-1.4,3.1,-1.31212121,-0.595454545,5,2,5,4,4,3,5,3,4,4,3.9,-1.22424242,NA,"positive","wise",1.3277090,1,  207,31, 0.275,1.3277090,7.191210,207, 0.5,1327.7090, 0.934272157
207,207, 97708,18,1,NA, 0, 5,"",1,"",4,5,5,6,3,6,5,6,6,5,5,5,5.083333, 0.70580808,-2.50000000,3.833333,-2.73737374,-0.662878788,3,1,3,3,2,2.4,-1.25151515,4,5,2,4,4,3.8, 0.06060606,-1.4,3.1,-1.31212121,-0.595454545,5,2,5,4,4,3,5,3,4,4,3.9,-1.22424242,NA,"positive","ambitious",1.0423388,1,  207,35, 0.375,1.0423388,6.949222,207, 0.5,1042.3388, 0.132804703
207,207, 97708,18,1,NA, 0, 5,"",1,"",4,5,5,6,3,6,5,6,6,5,5,5,5.083333, 0.70580808,-2.50000000,3.833333,-2.73737374,-0.662878788,3,1,3,3,2,2.4,-1.25151515,4,5,2,4,4,3.8, 0.06060606,-1.4,3.1,-1.31212121,-0.595454545,5,2,5,4,4,3,5,3,4,4,3.9,-1.22424242,NA,"negative","insecure",1.0260830,1,  207,38, 0.450,1.0260830,6.933504,207,-0.5,1026.0830, 0.087149822
207,207, 97708,18,1,NA, 0, 5,"",1,"",4,5,5,6,3,6,5,6,6,5,5,5,5.083333, 0.70580808,-2.50000000,3.833333,-2.73737374,-0.662878788,3,1,3,3,2,2.4,-1.25151515,4,5,2,4,4,3.8, 0.06060606,-1.4,3.1,-1.31212121,-0.595454545,5,2,5,4,4,3,5,3,4,4,3.9,-1.22424242,NA,"negative","clumsy",1.3932319,1,  207,39, 0.475,1.3932319,7.239381,207,-0.5,1393.2319, 1.118294509
207,207, 97708,18,1,NA, 0, 5,"",1,"",4,5,5,6,3,6,5,6,6,5,5,5,5.083333, 0.70580808,-2.50000000,3.833333,-2.73737374,-0.662878788,3,1,3,3,2,2.4,-1.25151515,4,5,2,4,4,3.8, 0.06060606,-1.4,3.1,-1.31212121,-0.595454545,5,2,5,4,4,3,5,3,4,4,3.9,-1.22424242,NA,"negative","withdrawn",0.7751360,1,  207,40, 0.500,0.7751360,6.653038,207,-0.5, 775.1360,-0.617639657
208,208,109003,23,1,NA, 0, 2,"",1,"",5,3,5,5,4,5,4,5,5,3,1,6,4.250000,-0.12752525, 0.50000000,4.500000, 0.26262626, 0.003787879,4,4,4,4,3,3.8, 0.14848485,4,5,4,4,4,4.2, 0.46060606,-0.4,4.0,-0.31212121, 0.304545455,6,7,6,6,6,6,7,7,7,7,6.5, 1.37575758,NA,"positive","ambitious",0.6924260,1,  208, 1,-0.475,0.6924260,6.540201,208, 0.5, 692.4260,-0.849932363
208,208,109003,23,1,NA, 0, 2,"",1,"",5,3,5,5,4,5,4,5,5,3,1,6,4.250000,-0.12752525, 0.50000000,4.500000, 0.26262626, 0.003787879,4,4,4,4,3,3.8, 0.14848485,4,5,4,4,4,4.2, 0.46060606,-0.4,4.0,-0.31212121, 0.304545455,6,7,6,6,6,6,7,7,7,7,6.5, 1.37575758,NA,"positive","confident",0.6754310,1,  208, 3,-0.425,0.6754310,6.515351,208, 0.5, 675.4310,-0.897663016
208,208,109003,23,1,NA, 0, 2,"",1,"",5,3,5,5,4,5,4,5,5,3,1,6,4.250000,-0.12752525, 0.50000000,4.500000, 0.26262626, 0.003787879,4,4,4,4,3,3.8, 0.14848485,4,5,4,4,4,4.2, 0.46060606,-0.4,4.0,-0.31212121, 0.304545455,6,7,6,6,6,6,7,7,7,7,6.5, 1.37575758,NA,"positive","orderly",0.7263460,1,  208, 4,-0.400,0.7263460,6.588027,208, 0.5, 726.3460,-0.754667249
208,208,109003,23,1,NA, 0, 2,"",1,"",5,3,5,5,4,5,4,5,5,3,1,6,4.250000,-0.12752525, 0.50000000,4.500000, 0.26262626, 0.003787879,4,4,4,4,3,3.8, 0.14848485,4,5,4,4,4,4.2, 0.46060606,-0.4,4.0,-0.31212121, 0.304545455,6,7,6,6,6,6,7,7,7,7,6.5, 1.37575758,NA,"positive","courageous",0.8582742,1,  208, 6,-0.350,0.8582742,6.754924,208, 0.5, 858.2742,-0.384144346
208,208,109003,23,1,NA, 0, 2,"",1,"",5,3,5,5,4,5,4,5,5,3,1,6,4.250000,-0.12752525, 0.50000000,4.500000, 0.26262626, 0.003787879,4,4,4,4,3,3.8, 0.14848485,4,5,4,4,4,4.2, 0.46060606,-0.4,4.0,-0.31212121, 0.304545455,6,7,6,6,6,6,7,7,7,7,6.5, 1.37575758,NA,"positive","wise",0.5775430,1,  208, 7,-0.325,0.5775430,6.358783,208, 0.5, 577.5430,-1.172583329
208,208,109003,23,1,NA, 0, 2,"",1,"",5,3,5,5,4,5,4,5,5,3,1,6,4.250000,-0.12752525, 0.50000000,4.500000, 0.26262626, 0.003787879,4,4,4,4,3,3.8, 0.14848485,4,5,4,4,4,4.2, 0.46060606,-0.4,4.0,-0.31212121, 0.304545455,6,7,6,6,6,6,7,7,7,7,6.5, 1.37575758,NA,"positive","brilliant",0.6756539,1,  208, 9,-0.275,0.6756539,6.515681,208, 0.5, 675.6539,-0.897036938
208,208,109003,23,1,NA, 0, 2,"",1,"",5,3,5,5,4,5,4,5,5,3,1,6,4.250000,-0.12752525, 0.50000000,4.500000, 0.26262626, 0.003787879,4,4,4,4,3,3.8, 0.14848485,4,5,4,4,4,4.2, 0.46060606,-0.4,4.0,-0.31212121, 0.304545455,6,7,6,6,6,6,7,7,7,7,6.5, 1.37575758,NA,"positive","trusting",0.6093988,1,  208,10,-0.250,0.6093988,6.412473,208, 0.5, 609.3988,-1.083115639
208,208,109003,23,1,NA, 0, 2,"",1,"",5,3,5,5,4,5,4,5,5,3,1,6,4.250000,-0.12752525, 0.50000000,4.500000, 0.26262626, 0.003787879,4,4,4,4,3,3.8, 0.14848485,4,5,4,4,4,4.2, 0.46060606,-0.4,4.0,-0.31212121, 0.304545455,6,7,6,6,6,6,7,7,7,7,6.5, 1.37575758,NA,"negative","inhibited",1.5088871,1,  208,12,-0.200,1.5088871,7.319128,208,-0.5,1508.8871, 1.443114320
208,208,109003,23,1,NA, 0, 2,"",1,"",5,3,5,5,4,5,4,5,5,3,1,6,4.250000,-0.12752525, 0.50000000,4.500000, 0.26262626, 0.003787879,4,4,4,4,3,3.8, 0.14848485,4,5,4,4,4,4.2, 0.46060606,-0.4,4.0,-0.31212121, 0.304545455,6,7,6,6,6,6,7,7,7,7,6.5, 1.37575758,NA,"positive","outgoing",0.8089709,1,  208,14,-0.150,0.8089709,6.695763,208, 0.5, 808.9709,-0.522613593
208,208,109003,23,1,NA, 0, 2,"",1,"",5,3,5,5,4,5,4,5,5,3,1,6,4.250000,-0.12752525, 0.50000000,4.500000, 0.26262626, 0.003787879,4,4,4,4,3,3.8, 0.14848485,4,5,4,4,4,4.2, 0.46060606,-0.4,4.0,-0.31212121, 0.304545455,6,7,6,6,6,6,7,7,7,7,6.5, 1.37575758,NA,"negative","cynical",1.0429971,1,  208,15,-0.125,1.0429971,6.949854,208,-0.5,1042.9971, 0.134653479
208,208,109003,23,1,NA, 0, 2,"",1,"",5,3,5,5,4,5,4,5,5,3,1,6,4.250000,-0.12752525, 0.50000000,4.500000, 0.26262626, 0.003787879,4,4,4,4,3,3.8, 0.14848485,4,5,4,4,4,4.2, 0.46060606,-0.4,4.0,-0.31212121, 0.304545455,6,7,6,6,6,6,7,7,7,7,6.5, 1.37575758,NA,"negative","insecure",1.8089991,1,  208,16,-0.100,1.8089991,7.500529,208,-0.5,1808.9991, 2.285984676
208,208,109003,23,1,NA, 0, 2,"",1,"",5,3,5,5,4,5,4,5,5,3,1,6,4.250000,-0.12752525, 0.50000000,4.500000, 0.26262626, 0.003787879,4,4,4,4,3,3.8, 0.14848485,4,5,4,4,4,4.2, 0.46060606,-0.4,4.0,-0.31212121, 0.304545455,6,7,6,6,6,6,7,7,7,7,6.5, 1.37575758,NA,"negative","childish",1.5590739,1,  208,18,-0.050,1.5590739,7.351847,208,-0.5,1559.0739, 1.584065116
208,208,109003,23,1,NA, 0, 2,"",1,"",5,3,5,5,4,5,4,5,5,3,1,6,4.250000,-0.12752525, 0.50000000,4.500000, 0.26262626, 0.003787879,4,4,4,4,3,3.8, 0.14848485,4,5,4,4,4,4.2, 0.46060606,-0.4,4.0,-0.31212121, 0.304545455,6,7,6,6,6,6,7,7,7,7,6.5, 1.37575758,NA,"positive","disciplined",0.6915371,1,  208,21, 0.025,0.6915371,6.538917,208, 0.5, 691.5371,-0.852428642
208,208,109003,23,1,NA, 0, 2,"",1,"",5,3,5,5,4,5,4,5,5,3,1,6,4.250000,-0.12752525, 0.50000000,4.500000, 0.26262626, 0.003787879,4,4,4,4,3,3.8, 0.14848485,4,5,4,4,4,4.2, 0.46060606,-0.4,4.0,-0.31212121, 0.304545455,6,7,6,6,6,6,7,7,7,7,6.5, 1.37575758,NA,"negative","clumsy",1.3430271,1,  208,22, 0.050,1.3430271,7.202681,208,-0.5,1343.0271, 0.977293491
208,208,109003,23,1,NA, 0, 2,"",1,"",5,3,5,5,4,5,4,5,5,3,1,6,4.250000,-0.12752525, 0.50000000,4.500000, 0.26262626, 0.003787879,4,4,4,4,3,3.8, 0.14848485,4,5,4,4,4,4.2, 0.46060606,-0.4,4.0,-0.31212121, 0.304545455,6,7,6,6,6,6,7,7,7,7,6.5, 1.37575758,NA,"positive","proud",0.7103179,1,  208,23, 0.075,0.7103179,6.565713,208, 0.5, 710.3179,-0.799682662
208,208,109003,23,1,NA, 0, 2,"",1,"",5,3,5,5,4,5,4,5,5,3,1,6,4.250000,-0.12752525, 0.50000000,4.500000, 0.26262626, 0.003787879,4,4,4,4,3,3.8, 0.14848485,4,5,4,4,4,4.2, 0.46060606,-0.4,4.0,-0.31212121, 0.304545455,6,7,6,6,6,6,7,7,7,7,6.5, 1.37575758,NA,"negative","withdrawn",1.4733222,1,  208,26, 0.150,1.4733222,7.295275,208,-0.5,1473.3222, 1.343229614
208,208,109003,23,1,NA, 0, 2,"",1,"",5,3,5,5,4,5,4,5,5,3,1,6,4.250000,-0.12752525, 0.50000000,4.500000, 0.26262626, 0.003787879,4,4,4,4,3,3.8, 0.14848485,4,5,4,4,4,4.2, 0.46060606,-0.4,4.0,-0.31212121, 0.304545455,6,7,6,6,6,6,7,7,7,7,6.5, 1.37575758,NA,"negative","stubborn",1.3424449,1,  208,27, 0.175,1.3424449,7.202248,208,-0.5,1342.4449, 0.975658320
208,208,109003,23,1,NA, 0, 2,"",1,"",5,3,5,5,4,5,4,5,5,3,1,6,4.250000,-0.12752525, 0.50000000,4.500000, 0.26262626, 0.003787879,4,4,4,4,3,3.8, 0.14848485,4,5,4,4,4,4.2, 0.46060606,-0.4,4.0,-0.31212121, 0.304545455,6,7,6,6,6,6,7,7,7,7,6.5, 1.37575758,NA,"positive","thrifty",1.0423369,1,  208,33, 0.325,1.0423369,6.949221,208, 0.5,1042.3369, 0.132799347
208,208,109003,23,1,NA, 0, 2,"",1,"",5,3,5,5,4,5,4,5,5,3,1,6,4.250000,-0.12752525, 0.50000000,4.500000, 0.26262626, 0.003787879,4,4,4,4,3,3.8, 0.14848485,4,5,4,4,4,4.2, 0.46060606,-0.4,4.0,-0.31212121, 0.304545455,6,7,6,6,6,6,7,7,7,7,6.5, 1.37575758,NA,"positive","inventive",1.7253590,1,  208,36, 0.400,1.7253590,7.453190,208, 0.5,1725.3590, 2.051079847
208,208,109003,23,1,NA, 0, 2,"",1,"",5,3,5,5,4,5,4,5,5,3,1,6,4.250000,-0.12752525, 0.50000000,4.500000, 0.26262626, 0.003787879,4,4,4,4,3,3.8, 0.14848485,4,5,4,4,4,4.2, 0.46060606,-0.4,4.0,-0.31212121, 0.304545455,6,7,6,6,6,6,7,7,7,7,6.5, 1.37575758,NA,"positive","persistent",0.8250520,1,  208,37, 0.425,0.8250520,6.715446,208, 0.5, 825.0520,-0.477449528
208,208,109003,23,1,NA, 0, 2,"",1,"",5,3,5,5,4,5,4,5,5,3,1,6,4.250000,-0.12752525, 0.50000000,4.500000, 0.26262626, 0.003787879,4,4,4,4,3,3.8, 0.14848485,4,5,4,4,4,4.2, 0.46060606,-0.4,4.0,-0.31212121, 0.304545455,6,7,6,6,6,6,7,7,7,7,6.5, 1.37575758,NA,"positive","enthusiastic",1.1744969,1,  208,40, 0.500,1.1744969,7.068595,208, 0.5,1174.4969, 0.503973106
209,209, 93766,18,1,NA, 0, 2,"",1,"",5,5,5,5,3,5,5,6,5,4,5,5,4.833333, 0.45580808,-0.33333333,4.666667,-0.57070707, 0.170454545,4,3,4,4,2,3.4,-0.25151515,5,4,4,5,3,4.2, 0.46060606,-0.8,3.8,-0.71212121, 0.104545455,5,6,6,5,5,6,6,4,6,5,5.4, 0.27575758,NA,"positive","idealistic",1.9748871,1,  209, 1,-0.475,1.9748871,7.588267,209, 0.5,1974.8871, 2.751884517
209,209, 93766,18,1,NA, 0, 2,"",1,"",5,5,5,5,3,5,5,6,5,4,5,5,4.833333, 0.45580808,-0.33333333,4.666667,-0.57070707, 0.170454545,4,3,4,4,2,3.4,-0.25151515,5,4,4,5,3,4.2, 0.46060606,-0.8,3.8,-0.71212121, 0.104545455,5,6,6,5,5,6,6,4,6,5,5.4, 0.27575758,NA,"positive","tender",1.5260739,1,  209, 2,-0.450,1.5260739,7.330454,209, 0.5,1526.0739, 1.491384003
209,209, 93766,18,1,NA, 0, 2,"",1,"",5,5,5,5,3,5,5,6,5,4,5,5,4.833333, 0.45580808,-0.33333333,4.666667,-0.57070707, 0.170454545,4,3,4,4,2,3.4,-0.25151515,5,4,4,5,3,4.2, 0.46060606,-0.8,3.8,-0.71212121, 0.104545455,5,6,6,5,5,6,6,4,6,5,5.4, 0.27575758,NA,"positive","tidy",0.8608222,1,  209, 4,-0.400,0.8608222,6.757888,209, 0.5, 860.8222,-0.376988295
209,209, 93766,18,1,NA, 0, 2,"",1,"",5,5,5,5,3,5,5,6,5,4,5,5,4.833333, 0.45580808,-0.33333333,4.666667,-0.57070707, 0.170454545,4,3,4,4,2,3.4,-0.25151515,5,4,4,5,3,4.2, 0.46060606,-0.8,3.8,-0.71212121, 0.104545455,5,6,6,5,5,6,6,4,6,5,5.4, 0.27575758,NA,"positive","courageous",1.5084331,1,  209, 9,-0.275,1.5084331,7.318827,209, 0.5,1508.4331, 1.441839395
209,209, 93766,18,1,NA, 0, 2,"",1,"",5,5,5,5,3,5,5,6,5,4,5,5,4.833333, 0.45580808,-0.33333333,4.666667,-0.57070707, 0.170454545,4,3,4,4,2,3.4,-0.25151515,5,4,4,5,3,4.2, 0.46060606,-0.8,3.8,-0.71212121, 0.104545455,5,6,6,5,5,6,6,4,6,5,5.4, 0.27575758,NA,"negative","insecure",1.3424129,1,  209,12,-0.200,1.3424129,7.202224,209,-0.5,1342.4129, 0.975568594
209,209, 93766,18,1,NA, 0, 2,"",1,"",5,5,5,5,3,5,5,6,5,4,5,5,4.833333, 0.45580808,-0.33333333,4.666667,-0.57070707, 0.170454545,4,3,4,4,2,3.4,-0.25151515,5,4,4,5,3,4.2, 0.46060606,-0.8,3.8,-0.71212121, 0.104545455,5,6,6,5,5,6,6,4,6,5,5.4, 0.27575758,NA,"negative","boring",1.5264699,1,  209,15,-0.125,1.5264699,7.330713,209,-0.5,1526.4699, 1.492496214
209,209, 93766,18,1,NA, 0, 2,"",1,"",5,5,5,5,3,5,5,6,5,4,5,5,4.833333, 0.45580808,-0.33333333,4.666667,-0.57070707, 0.170454545,4,3,4,4,2,3.4,-0.25151515,5,4,4,5,3,4.2, 0.46060606,-0.8,3.8,-0.71212121, 0.104545455,5,6,6,5,5,6,6,4,6,5,5.4, 0.27575758,NA,"positive","neat",0.7443681,1,  209,16,-0.100,0.7443681,6.612536,209, 0.5, 744.3681,-0.704051947
209,209, 93766,18,1,NA, 0, 2,"",1,"",5,5,5,5,3,5,5,6,5,4,5,5,4.833333, 0.45580808,-0.33333333,4.666667,-0.57070707, 0.170454545,4,3,4,4,2,3.4,-0.25151515,5,4,4,5,3,4.2, 0.46060606,-0.8,3.8,-0.71212121, 0.104545455,5,6,6,5,5,6,6,4,6,5,5.4, 0.27575758,NA,"negative","cynical",1.3261330,1,  209,17,-0.075,1.3261330,7.190022,209,-0.5,1326.1330, 0.929846080
209,209, 93766,18,1,NA, 0, 2,"",1,"",5,5,5,5,3,5,5,6,5,4,5,5,4.833333, 0.45580808,-0.33333333,4.666667,-0.57070707, 0.170454545,4,3,4,4,2,3.4,-0.25151515,5,4,4,5,3,4.2, 0.46060606,-0.8,3.8,-0.71212121, 0.104545455,5,6,6,5,5,6,6,4,6,5,5.4, 0.27575758,NA,"negative","anxious",1.7093360,1,  209,23, 0.075,1.7093360,7.443860,209,-0.5,1709.3360, 2.006079165
209,209, 93766,18,1,NA, 0, 2,"",1,"",5,5,5,5,3,5,5,6,5,4,5,5,4.833333, 0.45580808,-0.33333333,4.666667,-0.57070707, 0.170454545,4,3,4,4,2,3.4,-0.25151515,5,4,4,5,3,4.2, 0.46060606,-0.8,3.8,-0.71212121, 0.104545455,5,6,6,5,5,6,6,4,6,5,5.4, 0.27575758,NA,"positive","disciplined",1.1915569,1,  209,28, 0.200,1.1915569,7.083016,209, 0.5,1191.5569, 0.551886562
209,209, 93766,18,1,NA, 0, 2,"",1,"",5,5,5,5,3,5,5,6,5,4,5,5,4.833333, 0.45580808,-0.33333333,4.666667,-0.57070707, 0.170454545,4,3,4,4,2,3.4,-0.25151515,5,4,4,5,3,4.2, 0.46060606,-0.8,3.8,-0.71212121, 0.104545455,5,6,6,5,5,6,6,4,6,5,5.4, 0.27575758,NA,"positive","orderly",0.8424280,1,  209,35, 0.375,0.8424280,6.736288,209, 0.5, 842.4280,-0.428648849
209,209, 93766,18,1,NA, 0, 2,"",1,"",5,5,5,5,3,5,5,6,5,4,5,5,4.833333, 0.45580808,-0.33333333,4.666667,-0.57070707, 0.170454545,4,3,4,4,2,3.4,-0.25151515,5,4,4,5,3,4.2, 0.46060606,-0.8,3.8,-0.71212121, 0.104545455,5,6,6,5,5,6,6,4,6,5,5.4, 0.27575758,NA,"negative","withdrawn",1.4088089,1,  209,37, 0.425,1.4088089,7.250500,209,-0.5,1408.8089, 1.162043032
209,209, 93766,18,1,NA, 0, 2,"",1,"",5,5,5,5,3,5,5,6,5,4,5,5,4.833333, 0.45580808,-0.33333333,4.666667,-0.57070707, 0.170454545,4,3,4,4,2,3.4,-0.25151515,5,4,4,5,3,4.2, 0.46060606,-0.8,3.8,-0.71212121, 0.104545455,5,6,6,5,5,6,6,4,6,5,5.4, 0.27575758,NA,"positive","persistent",0.9584980,1,  209,38, 0.450,0.9584980,6.865367,209, 0.5, 958.4980,-0.102663930
209,209, 93766,18,1,NA, 0, 2,"",1,"",5,5,5,5,3,5,5,6,5,4,5,5,4.833333, 0.45580808,-0.33333333,4.666667,-0.57070707, 0.170454545,4,3,4,4,2,3.4,-0.25151515,5,4,4,5,3,4.2, 0.46060606,-0.8,3.8,-0.71212121, 0.104545455,5,6,6,5,5,6,6,4,6,5,5.4, 0.27575758,NA,"positive","thrifty",1.4257541,1,  209,39, 0.475,1.4257541,7.262456,209, 0.5,1425.7541, 1.209633737
209,209, 93766,18,1,NA, 0, 2,"",1,"",5,5,5,5,3,5,5,6,5,4,5,5,4.833333, 0.45580808,-0.33333333,4.666667,-0.57070707, 0.170454545,4,3,4,4,2,3.4,-0.25151515,5,4,4,5,3,4.2, 0.46060606,-0.8,3.8,-0.71212121, 0.104545455,5,6,6,5,5,6,6,4,6,5,5.4, 0.27575758,NA,"negative","inhibited",1.8921089,1,  209,40, 0.500,1.8921089,7.545447,209,-0.5,1892.1089, 2.519400304
210,210,   210,28,1,NA, 0, 2,"",1,"",4,4,5,5,4,4,5,5,5,4,4,5,4.500000, 0.12247475, 0.33333333,4.666667, 0.09595960, 0.170454545,4,4,4,4,3,3.8, 0.14848485,4,4,3,4,4,3.8, 0.06060606, 0.0,3.8, 0.08787879, 0.104545455,5,6,6,6,6,6,6,5,6,6,5.8, 0.67575758,NA,"positive","enthusiastic",0.5748482,1,  210, 1,-0.475,0.5748482,6.354106,210, 0.5, 574.8482,-1.180151853
210,210,   210,28,1,NA, 0, 2,"",1,"",4,4,5,5,4,4,5,5,5,4,4,5,4.500000, 0.12247475, 0.33333333,4.666667, 0.09595960, 0.170454545,4,4,4,4,3,3.8, 0.14848485,4,4,3,4,4,3.8, 0.06060606, 0.0,3.8, 0.08787879, 0.104545455,5,6,6,6,6,6,6,5,6,6,5.8, 0.67575758,NA,"negative","moody",0.7434680,1,  210, 2,-0.450,0.7434680,6.611326,210,-0.5, 743.4680,-0.706579699
210,210,   210,28,1,NA, 0, 2,"",1,"",4,4,5,5,4,4,5,5,5,4,4,5,4.500000, 0.12247475, 0.33333333,4.666667, 0.09595960, 0.170454545,4,4,4,4,3,3.8, 0.14848485,4,4,3,4,4,3.8, 0.06060606, 0.0,3.8, 0.08787879, 0.104545455,5,6,6,6,6,6,6,5,6,6,5.8, 0.67575758,NA,"positive","inventive",0.7246981,1,  210, 3,-0.425,0.7246981,6.585755,210, 0.5, 724.6981,-0.759295546
210,210,   210,28,1,NA, 0, 2,"",1,"",4,4,5,5,4,4,5,5,5,4,4,5,4.500000, 0.12247475, 0.33333333,4.666667, 0.09595960, 0.170454545,4,4,4,4,3,3.8, 0.14848485,4,4,3,4,4,3.8, 0.06060606, 0.0,3.8, 0.08787879, 0.104545455,5,6,6,6,6,6,6,5,6,6,5.8, 0.67575758,NA,"positive","tender",0.4934051,1,  210, 4,-0.400,0.4934051,6.201331,210, 0.5, 493.4051,-1.408886286
210,210,   210,28,1,NA, 0, 2,"",1,"",4,4,5,5,4,4,5,5,5,4,4,5,4.500000, 0.12247475, 0.33333333,4.666667, 0.09595960, 0.170454545,4,4,4,4,3,3.8, 0.14848485,4,4,3,4,4,3.8, 0.06060606, 0.0,3.8, 0.08787879, 0.104545455,5,6,6,6,6,6,6,5,6,6,5.8, 0.67575758,NA,"positive","trusting",0.5592451,1,  210, 5,-0.375,0.5592451,6.326588,210, 0.5, 559.2451,-1.223973361
210,210,   210,28,1,NA, 0, 2,"",1,"",4,4,5,5,4,4,5,5,5,4,4,5,4.500000, 0.12247475, 0.33333333,4.666667, 0.09595960, 0.170454545,4,4,4,4,3,3.8, 0.14848485,4,4,3,4,4,3.8, 0.06060606, 0.0,3.8, 0.08787879, 0.104545455,5,6,6,6,6,6,6,5,6,6,5.8, 0.67575758,NA,"negative","forgetful",0.6422169,1,  210, 6,-0.350,0.6422169,6.464926,210,-0.5, 642.2169,-0.990945433
210,210,   210,28,1,NA, 0, 2,"",1,"",4,4,5,5,4,4,5,5,5,4,4,5,4.500000, 0.12247475, 0.33333333,4.666667, 0.09595960, 0.170454545,4,4,4,4,3,3.8, 0.14848485,4,4,3,4,4,3.8, 0.06060606, 0.0,3.8, 0.08787879, 0.104545455,5,6,6,6,6,6,6,5,6,6,5.8, 0.67575758,NA,"positive","tidy",1.0109248,1,  210, 7,-0.325,1.0109248,6.918621,210, 0.5,1010.9248, 0.044577790
210,210,   210,28,1,NA, 0, 2,"",1,"",4,4,5,5,4,4,5,5,5,4,4,5,4.500000, 0.12247475, 0.33333333,4.666667, 0.09595960, 0.170454545,4,4,4,4,3,3.8, 0.14848485,4,4,3,4,4,3.8, 0.06060606, 0.0,3.8, 0.08787879, 0.104545455,5,6,6,6,6,6,6,5,6,6,5.8, 0.67575758,NA,"positive","persistent",0.7411931,1,  210, 8,-0.300,0.7411931,6.608261,210, 0.5, 741.1931,-0.712969052
210,210,   210,28,1,NA, 0, 2,"",1,"",4,4,5,5,4,4,5,5,5,4,4,5,4.500000, 0.12247475, 0.33333333,4.666667, 0.09595960, 0.170454545,4,4,4,4,3,3.8, 0.14848485,4,4,3,4,4,3.8, 0.06060606, 0.0,3.8, 0.08787879, 0.104545455,5,6,6,6,6,6,6,5,6,6,5.8, 0.67575758,NA,"negative","gullible",0.9591501,1,  210, 9,-0.275,0.9591501,6.866048,210,-0.5, 959.1501,-0.100832565
210,210,   210,28,1,NA, 0, 2,"",1,"",4,4,5,5,4,4,5,5,5,4,4,5,4.500000, 0.12247475, 0.33333333,4.666667, 0.09595960, 0.170454545,4,4,4,4,3,3.8, 0.14848485,4,4,3,4,4,3.8, 0.06060606, 0.0,3.8, 0.08787879, 0.104545455,5,6,6,6,6,6,6,5,6,6,5.8, 0.67575758,NA,"negative","insecure",0.6424232,1,  210,10,-0.250,0.6424232,6.465247,210,-0.5, 642.4232,-0.990366226
210,210,   210,28,1,NA, 0, 2,"",1,"",4,4,5,5,4,4,5,5,5,4,4,5,4.500000, 0.12247475, 0.33333333,4.666667, 0.09595960, 0.170454545,4,4,4,4,3,3.8, 0.14848485,4,4,3,4,4,3.8, 0.06060606, 0.0,3.8, 0.08787879, 0.104545455,5,6,6,6,6,6,6,5,6,6,5.8, 0.67575758,NA,"negative","inhibited",0.8922169,1,  210,11,-0.225,0.8922169,6.793709,210,-0.5, 892.2169,-0.288815619
210,210,   210,28,1,NA, 0, 2,"",1,"",4,4,5,5,4,4,5,5,5,4,4,5,4.500000, 0.12247475, 0.33333333,4.666667, 0.09595960, 0.170454545,4,4,4,4,3,3.8, 0.14848485,4,4,3,4,4,3.8, 0.06060606, 0.0,3.8, 0.08787879, 0.104545455,5,6,6,6,6,6,6,5,6,6,5.8, 0.67575758,NA,"positive","neat",0.8943188,1,  210,13,-0.175,0.8943188,6.796062,210, 0.5, 894.3188,-0.282912398
210,210,   210,28,1,NA, 0, 2,"",1,"",4,4,5,5,4,4,5,5,5,4,4,5,4.500000, 0.12247475, 0.33333333,4.666667, 0.09595960, 0.170454545,4,4,4,4,3,3.8, 0.14848485,4,4,3,4,4,3.8, 0.06060606, 0.0,3.8, 0.08787879, 0.104545455,5,6,6,6,6,6,6,5,6,6,5.8, 0.67575758,NA,"positive","artistic",0.9923210,1,  210,14,-0.150,0.9923210,6.900047,210, 0.5, 992.3210,-0.007671346
210,210,   210,28,1,NA, 0, 2,"",1,"",4,4,5,5,4,4,5,5,5,4,4,5,4.500000, 0.12247475, 0.33333333,4.666667, 0.09595960, 0.170454545,4,4,4,4,3,3.8, 0.14848485,4,4,3,4,4,3.8, 0.06060606, 0.0,3.8, 0.08787879, 0.104545455,5,6,6,6,6,6,6,5,6,6,5.8, 0.67575758,NA,"negative","cynical",0.7762671,1,  210,15,-0.125,0.7762671,6.654497,210,-0.5, 776.2671,-0.614463059
210,210,   210,28,1,NA, 0, 2,"",1,"",4,4,5,5,4,4,5,5,5,4,4,5,4.500000, 0.12247475, 0.33333333,4.666667, 0.09595960, 0.170454545,4,4,4,4,3,3.8, 0.14848485,4,4,3,4,4,3.8, 0.06060606, 0.0,3.8, 0.08787879, 0.104545455,5,6,6,6,6,6,6,5,6,6,5.8, 0.67575758,NA,"positive","thrifty",0.9428279,1,  210,17,-0.075,0.9428279,6.848884,210, 0.5, 942.8279,-0.146673598
210,210,   210,28,1,NA, 0, 2,"",1,"",4,4,5,5,4,4,5,5,5,4,4,5,4.500000, 0.12247475, 0.33333333,4.666667, 0.09595960, 0.170454545,4,4,4,4,3,3.8, 0.14848485,4,4,3,4,4,3.8, 0.06060606, 0.0,3.8, 0.08787879, 0.104545455,5,6,6,6,6,6,6,5,6,6,5.8, 0.67575758,NA,"positive","confident",0.6755059,1,  210,18,-0.050,0.6755059,6.515462,210, 0.5, 675.5059,-0.897452759
210,210,   210,28,1,NA, 0, 2,"",1,"",4,4,5,5,4,4,5,5,5,4,4,5,4.500000, 0.12247475, 0.33333333,4.666667, 0.09595960, 0.170454545,4,4,4,4,3,3.8, 0.14848485,4,4,3,4,4,3.8, 0.06060606, 0.0,3.8, 0.08787879, 0.104545455,5,6,6,6,6,6,6,5,6,6,5.8, 0.67575758,NA,"negative","irritable",0.6754119,1,  210,19,-0.025,0.6754119,6.515323,210,-0.5, 675.4119,-0.897716583
210,210,   210,28,1,NA, 0, 2,"",1,"",4,4,5,5,4,4,5,5,5,4,4,5,4.500000, 0.12247475, 0.33333333,4.666667, 0.09595960, 0.170454545,4,4,4,4,3,3.8, 0.14848485,4,4,3,4,4,3.8, 0.06060606, 0.0,3.8, 0.08787879, 0.104545455,5,6,6,6,6,6,6,5,6,6,5.8, 0.67575758,NA,"positive","ambitious",0.6751399,1,  210,20, 0.000,0.6751399,6.514920,210, 0.5, 675.1399,-0.898480601
210,210,   210,28,1,NA, 0, 2,"",1,"",4,4,5,5,4,4,5,5,5,4,4,5,4.500000, 0.12247475, 0.33333333,4.666667, 0.09595960, 0.170454545,4,4,4,4,3,3.8, 0.14848485,4,4,3,4,4,3.8, 0.06060606, 0.0,3.8, 0.08787879, 0.104545455,5,6,6,6,6,6,6,5,6,6,5.8, 0.67575758,NA,"positive","proud",0.5935988,1,  210,22, 0.050,0.5935988,6.386204,210, 0.5, 593.5988,-1.127490241
210,210,   210,28,1,NA, 0, 2,"",1,"",4,4,5,5,4,4,5,5,5,4,4,5,4.500000, 0.12247475, 0.33333333,4.666667, 0.09595960, 0.170454545,4,4,4,4,3,3.8, 0.14848485,4,4,3,4,4,3.8, 0.06060606, 0.0,3.8, 0.08787879, 0.104545455,5,6,6,6,6,6,6,5,6,6,5.8, 0.67575758,NA,"negative","childish",1.0423639,1,  210,25, 0.125,1.0423639,6.949246,210,-0.5,1042.3639, 0.132875012
210,210,   210,28,1,NA, 0, 2,"",1,"",4,4,5,5,4,4,5,5,5,4,4,5,4.500000, 0.12247475, 0.33333333,4.666667, 0.09595960, 0.170454545,4,4,4,4,3,3.8, 0.14848485,4,4,3,4,4,3.8, 0.06060606, 0.0,3.8, 0.08787879, 0.104545455,5,6,6,6,6,6,6,5,6,6,5.8, 0.67575758,NA,"positive","courageous",0.5752699,1,  210,27, 0.175,0.5752699,6.354839,210, 0.5, 575.2699,-1.178967323
210,210,   210,28,1,NA, 0, 2,"",1,"",4,4,5,5,4,4,5,5,5,4,4,5,4.500000, 0.12247475, 0.33333333,4.666667, 0.09595960, 0.170454545,4,4,4,4,3,3.8, 0.14848485,4,4,3,4,4,3.8, 0.06060606, 0.0,3.8, 0.08787879, 0.104545455,5,6,6,6,6,6,6,5,6,6,5.8, 0.67575758,NA,"positive","brilliant",0.8589120,1,  210,32, 0.300,0.8589120,6.755666,210, 0.5, 858.9120,-0.382353156
210,210,   210,28,1,NA, 0, 2,"",1,"",4,4,5,5,4,4,5,5,5,4,4,5,4.500000, 0.12247475, 0.33333333,4.666667, 0.09595960, 0.170454545,4,4,4,4,3,3.8, 0.14848485,4,4,3,4,4,3.8, 0.06060606, 0.0,3.8, 0.08787879, 0.104545455,5,6,6,6,6,6,6,5,6,6,5.8, 0.67575758,NA,"positive","talented",0.7253540,1,  210,33, 0.325,0.7253540,6.586660,210, 0.5, 725.3540,-0.757453469
210,210,   210,28,1,NA, 0, 2,"",1,"",4,4,5,5,4,4,5,5,5,4,4,5,4.500000, 0.12247475, 0.33333333,4.666667, 0.09595960, 0.170454545,4,4,4,4,3,3.8, 0.14848485,4,4,3,4,4,3.8, 0.06060606, 0.0,3.8, 0.08787879, 0.104545455,5,6,6,6,6,6,6,5,6,6,5.8, 0.67575758,NA,"positive","outgoing",0.6088719,1,  210,39, 0.475,0.6088719,6.411608,210, 0.5, 608.8719,-1.084595462
212,212,   212,24,2,NA, 0, 2,"",1,"",4,5,3,3,2,4,3,2,5,2,5,5,3.583333,-0.79419192, 1.08333333,4.125000, 0.84595960,-0.371212121,4,2,4,3,5,3.6,-0.05151515,4,5,1,5,4,3.8, 0.06060606,-0.2,3.7,-0.11212121, 0.004545455,5,7,6,6,6,6,6,3,7,7,5.9, 0.77575758,NA,"positive","confident",0.7591770,1,  212, 1,-0.475,0.7591770,6.632235,212, 0.5, 759.1770,-0.662460883
212,212,   212,24,2,NA, 0, 2,"",1,"",4,5,3,3,2,4,3,2,5,2,5,5,3.583333,-0.79419192, 1.08333333,4.125000, 0.84595960,-0.371212121,4,2,4,3,5,3.6,-0.05151515,4,5,1,5,4,3.8, 0.06060606,-0.2,3.7,-0.11212121, 0.004545455,5,7,6,6,6,6,6,3,7,7,5.9, 0.77575758,NA,"negative","moody",1.6601288,1,  212, 4,-0.400,1.6601288,7.414650,212,-0.5,1660.1288, 1.867879768
212,212,   212,24,2,NA, 0, 2,"",1,"",4,5,3,3,2,4,3,2,5,2,5,5,3.583333,-0.79419192, 1.08333333,4.125000, 0.84595960,-0.371212121,4,2,4,3,5,3.6,-0.05151515,4,5,1,5,4,3.8, 0.06060606,-0.2,3.7,-0.11212121, 0.004545455,5,7,6,6,6,6,6,3,7,7,5.9, 0.77575758,NA,"negative","timid",1.4763360,1,  212, 6,-0.350,1.4763360,7.297319,212,-0.5,1476.3360, 1.351694067
212,212,   212,24,2,NA, 0, 2,"",1,"",4,5,3,3,2,4,3,2,5,2,5,5,3.583333,-0.79419192, 1.08333333,4.125000, 0.84595960,-0.371212121,4,2,4,3,5,3.6,-0.05151515,4,5,1,5,4,3.8, 0.06060606,-0.2,3.7,-0.11212121, 0.004545455,5,7,6,6,6,6,6,3,7,7,5.9, 0.77575758,NA,"positive","neat",0.7778490,1,  212, 7,-0.325,0.7778490,6.656532,212, 0.5, 777.8490,-0.610020242
212,212,   212,24,2,NA, 0, 2,"",1,"",4,5,3,3,2,4,3,2,5,2,5,5,3.583333,-0.79419192, 1.08333333,4.125000, 0.84595960,-0.371212121,4,2,4,3,5,3.6,-0.05151515,4,5,1,5,4,3.8, 0.06060606,-0.2,3.7,-0.11212121, 0.004545455,5,7,6,6,6,6,6,3,7,7,5.9, 0.77575758,NA,"positive","tender",1.3095381,1,  212, 8,-0.300,1.3095381,7.177430,212, 0.5,1309.5381, 0.883239020
212,212,   212,24,2,NA, 0, 2,"",1,"",4,5,3,3,2,4,3,2,5,2,5,5,3.583333,-0.79419192, 1.08333333,4.125000, 0.84595960,-0.371212121,4,2,4,3,5,3.6,-0.05151515,4,5,1,5,4,3.8, 0.06060606,-0.2,3.7,-0.11212121, 0.004545455,5,7,6,6,6,6,6,3,7,7,5.9, 0.77575758,NA,"negative","childish",0.9259040,1,  212,10,-0.250,0.9259040,6.830771,212,-0.5, 925.9040,-0.194204708
212,212,   212,24,2,NA, 0, 2,"",1,"",4,5,3,3,2,4,3,2,5,2,5,5,3.583333,-0.79419192, 1.08333333,4.125000, 0.84595960,-0.371212121,4,2,4,3,5,3.6,-0.05151515,4,5,1,5,4,3.8, 0.06060606,-0.2,3.7,-0.11212121, 0.004545455,5,7,6,6,6,6,6,3,7,7,5.9, 0.77575758,NA,"positive","persistent",1.0247431,1,  212,11,-0.225,1.0247431,6.932197,212, 0.5,1024.7431, 0.083386650
212,212,   212,24,2,NA, 0, 2,"",1,"",4,5,3,3,2,4,3,2,5,2,5,5,3.583333,-0.79419192, 1.08333333,4.125000, 0.84595960,-0.371212121,4,2,4,3,5,3.6,-0.05151515,4,5,1,5,4,3.8, 0.06060606,-0.2,3.7,-0.11212121, 0.004545455,5,7,6,6,6,6,6,3,7,7,5.9, 0.77575758,NA,"positive","tidy",0.6777000,1,  212,12,-0.200,0.6777000,6.518705,212, 0.5, 677.7000,-0.891290401
212,212,   212,24,2,NA, 0, 2,"",1,"",4,5,3,3,2,4,3,2,5,2,5,5,3.583333,-0.79419192, 1.08333333,4.125000, 0.84595960,-0.371212121,4,2,4,3,5,3.6,-0.05151515,4,5,1,5,4,3.8, 0.06060606,-0.2,3.7,-0.11212121, 0.004545455,5,7,6,6,6,6,6,3,7,7,5.9, 0.77575758,NA,"positive","artistic",0.8255072,1,  212,15,-0.125,0.8255072,6.715998,212, 0.5, 825.5072,-0.476171256
212,212,   212,24,2,NA, 0, 2,"",1,"",4,5,3,3,2,4,3,2,5,2,5,5,3.583333,-0.79419192, 1.08333333,4.125000, 0.84595960,-0.371212121,4,2,4,3,5,3.6,-0.05151515,4,5,1,5,4,3.8, 0.06060606,-0.2,3.7,-0.11212121, 0.004545455,5,7,6,6,6,6,6,3,7,7,5.9, 0.77575758,NA,"positive","outgoing",0.7591369,1,  212,18,-0.050,0.7591369,6.632182,212, 0.5, 759.1369,-0.662573378
212,212,   212,24,2,NA, 0, 2,"",1,"",4,5,3,3,2,4,3,2,5,2,5,5,3.583333,-0.79419192, 1.08333333,4.125000, 0.84595960,-0.371212121,4,2,4,3,5,3.6,-0.05151515,4,5,1,5,4,3.8, 0.06060606,-0.2,3.7,-0.11212121, 0.004545455,5,7,6,6,6,6,6,3,7,7,5.9, 0.77575758,NA,"positive","trusting",0.8425188,1,  212,19,-0.025,0.8425188,6.736396,212, 0.5, 842.5188,-0.428393732
212,212,   212,24,2,NA, 0, 2,"",1,"",4,5,3,3,2,4,3,2,5,2,5,5,3.583333,-0.79419192, 1.08333333,4.125000, 0.84595960,-0.371212121,4,2,4,3,5,3.6,-0.05151515,4,5,1,5,4,3.8, 0.06060606,-0.2,3.7,-0.11212121, 0.004545455,5,7,6,6,6,6,6,3,7,7,5.9, 0.77575758,NA,"negative","forgetful",1.1085918,1,  212,20, 0.000,1.1085918,7.010846,212,-0.5,1108.5918, 0.318877381
212,212,   212,24,2,NA, 0, 2,"",1,"",4,5,3,3,2,4,3,2,5,2,5,5,3.583333,-0.79419192, 1.08333333,4.125000, 0.84595960,-0.371212121,4,2,4,3,5,3.6,-0.05151515,4,5,1,5,4,3.8, 0.06060606,-0.2,3.7,-0.11212121, 0.004545455,5,7,6,6,6,6,6,3,7,7,5.9, 0.77575758,NA,"positive","inventive",1.7754889,1,  212,21, 0.025,1.7754889,7.481831,212, 0.5,1775.4889, 2.191870608
212,212,   212,24,2,NA, 0, 2,"",1,"",4,5,3,3,2,4,3,2,5,2,5,5,3.583333,-0.79419192, 1.08333333,4.125000, 0.84595960,-0.371212121,4,2,4,3,5,3.6,-0.05151515,4,5,1,5,4,3.8, 0.06060606,-0.2,3.7,-0.11212121, 0.004545455,5,7,6,6,6,6,6,3,7,7,5.9, 0.77575758,NA,"positive","ambitious",1.3248789,1,  212,23, 0.075,1.3248789,7.189076,212, 0.5,1324.8789, 0.926323966
212,212,   212,24,2,NA, 0, 2,"",1,"",4,5,3,3,2,4,3,2,5,2,5,5,3.583333,-0.79419192, 1.08333333,4.125000, 0.84595960,-0.371212121,4,2,4,3,5,3.6,-0.05151515,4,5,1,5,4,3.8, 0.06060606,-0.2,3.7,-0.11212121, 0.004545455,5,7,6,6,6,6,6,3,7,7,5.9, 0.77575758,NA,"negative","messy",1.2101290,1,  212,25, 0.125,1.2101290,7.098482,212,-0.5,1210.1290, 0.604046640
212,212,   212,24,2,NA, 0, 2,"",1,"",4,5,3,3,2,4,3,2,5,2,5,5,3.583333,-0.79419192, 1.08333333,4.125000, 0.84595960,-0.371212121,4,2,4,3,5,3.6,-0.05151515,4,5,1,5,4,3.8, 0.06060606,-0.2,3.7,-0.11212121, 0.004545455,5,7,6,6,6,6,6,3,7,7,5.9, 0.77575758,NA,"negative","worrying",1.7237170,1,  212,26, 0.150,1.7237170,7.452238,212,-0.5,1723.7170, 2.046468289
212,212,   212,24,2,NA, 0, 2,"",1,"",4,5,3,3,2,4,3,2,5,2,5,5,3.583333,-0.79419192, 1.08333333,4.125000, 0.84595960,-0.371212121,4,2,4,3,5,3.6,-0.05151515,4,5,1,5,4,3.8, 0.06060606,-0.2,3.7,-0.11212121, 0.004545455,5,7,6,6,6,6,6,3,7,7,5.9, 0.77575758,NA,"positive","wise",0.7109909,1,  212,30, 0.250,0.7109909,6.566660,212, 0.5, 710.9909,-0.797792372
212,212,   212,24,2,NA, 0, 2,"",1,"",4,5,3,3,2,4,3,2,5,2,5,5,3.583333,-0.79419192, 1.08333333,4.125000, 0.84595960,-0.371212121,4,2,4,3,5,3.6,-0.05151515,4,5,1,5,4,3.8, 0.06060606,-0.2,3.7,-0.11212121, 0.004545455,5,7,6,6,6,6,6,3,7,7,5.9, 0.77575758,NA,"positive","talented",0.7258611,1,  212,32, 0.300,0.7258611,6.587359,212, 0.5, 725.8611,-0.756029221
212,212,   212,24,2,NA, 0, 2,"",1,"",4,5,3,3,2,4,3,2,5,2,5,5,3.583333,-0.79419192, 1.08333333,4.125000, 0.84595960,-0.371212121,4,2,4,3,5,3.6,-0.05151515,4,5,1,5,4,3.8, 0.06060606,-0.2,3.7,-0.11212121, 0.004545455,5,7,6,6,6,6,6,3,7,7,5.9, 0.77575758,NA,"positive","courageous",1.0587449,1,  212,34, 0.350,1.0587449,6.964839,212, 0.5,1058.7449, 0.178881436
212,212,   212,24,2,NA, 0, 2,"",1,"",4,5,3,3,2,4,3,2,5,2,5,5,3.583333,-0.79419192, 1.08333333,4.125000, 0.84595960,-0.371212121,4,2,4,3,5,3.6,-0.05151515,4,5,1,5,4,3.8, 0.06060606,-0.2,3.7,-0.11212121, 0.004545455,5,7,6,6,6,6,6,3,7,7,5.9, 0.77575758,NA,"positive","idealistic",0.9252119,1,  212,35, 0.375,0.9252119,6.830023,212, 0.5, 925.2119,-0.196148568
212,212,   212,24,2,NA, 0, 2,"",1,"",4,5,3,3,2,4,3,2,5,2,5,5,3.583333,-0.79419192, 1.08333333,4.125000, 0.84595960,-0.371212121,4,2,4,3,5,3.6,-0.05151515,4,5,1,5,4,3.8, 0.06060606,-0.2,3.7,-0.11212121, 0.004545455,5,7,6,6,6,6,6,3,7,7,5.9, 0.77575758,NA,"positive","brilliant",0.6418271,1,  212,39, 0.475,0.6418271,6.464319,212, 0.5, 641.8271,-0.992040236
212,212,   212,24,2,NA, 0, 2,"",1,"",4,5,3,3,2,4,3,2,5,2,5,5,3.583333,-0.79419192, 1.08333333,4.125000, 0.84595960,-0.371212121,4,2,4,3,5,3.6,-0.05151515,4,5,1,5,4,3.8, 0.06060606,-0.2,3.7,-0.11212121, 0.004545455,5,7,6,6,6,6,6,3,7,7,5.9, 0.77575758,NA,"positive","enthusiastic",0.6412911,1,  212,40, 0.500,0.6412911,6.463484,212, 0.5, 641.2911,-0.993545501
219,219, 99847,21,2,NA, 0, 5,"",1,"",6,5,3,5,5,6,5,6,5,3,5,6,5.000000, 0.62247475, 0.00000000,5.000000,-0.23737374, 0.503787879,4,4,4,4,3,3.8, 0.14848485,3,2,2,3,2,2.4,-1.33939394, 1.4,3.1, 1.48787879,-0.595454545,6,5,5,6,6,3,2,3,6,5,4.7,-0.42424242,NA,"positive","proud",0.8437290,1,  219,28, 0.200,0.8437290,6.737831,219, 0.5, 843.7290,-0.424994825
219,219, 99847,21,2,NA, 0, 5,"",1,"",6,5,3,5,5,6,5,6,5,3,5,6,5.000000, 0.62247475, 0.00000000,5.000000,-0.23737374, 0.503787879,4,4,4,4,3,3.8, 0.14848485,3,2,2,3,2,2.4,-1.33939394, 1.4,3.1, 1.48787879,-0.595454545,6,5,5,6,6,3,2,3,6,5,4.7,-0.42424242,NA,"positive","confident",0.8423388,1,  219,29, 0.225,0.8423388,6.736182,219, 0.5, 842.3388,-0.428899282
219,219, 99847,21,2,NA, 0, 5,"",1,"",6,5,3,5,5,6,5,6,5,3,5,6,5.000000, 0.62247475, 0.00000000,5.000000,-0.23737374, 0.503787879,4,4,4,4,3,3.8, 0.14848485,3,2,2,3,2,2.4,-1.33939394, 1.4,3.1, 1.48787879,-0.595454545,6,5,5,6,6,3,2,3,6,5,4.7,-0.42424242,NA,"positive","enthusiastic",0.8577240,1,  219,31, 0.275,0.8577240,6.754282,219, 0.5, 857.7240,-0.385689789
219,219, 99847,21,2,NA, 0, 5,"",1,"",6,5,3,5,5,6,5,6,5,3,5,6,5.000000, 0.62247475, 0.00000000,5.000000,-0.23737374, 0.503787879,4,4,4,4,3,3.8, 0.14848485,3,2,2,3,2,2.4,-1.33939394, 1.4,3.1, 1.48787879,-0.595454545,6,5,5,6,6,3,2,3,6,5,4.7,-0.42424242,NA,"positive","ambitious",0.6922328,1,  219,32, 0.300,0.6922328,6.539922,219, 0.5, 692.2328,-0.850474741
219,219, 99847,21,2,NA, 0, 5,"",1,"",6,5,3,5,5,6,5,6,5,3,5,6,5.000000, 0.62247475, 0.00000000,5.000000,-0.23737374, 0.503787879,4,4,4,4,3,3.8, 0.14848485,3,2,2,3,2,2.4,-1.33939394, 1.4,3.1, 1.48787879,-0.595454545,6,5,5,6,6,3,2,3,6,5,4.7,-0.42424242,NA,"positive","trusting",0.8255470,1,  219,33, 0.325,0.8255470,6.716046,219, 0.5, 825.5470,-0.476059432
219,219, 99847,21,2,NA, 0, 5,"",1,"",6,5,3,5,5,6,5,6,5,3,5,6,5.000000, 0.62247475, 0.00000000,5.000000,-0.23737374, 0.503787879,4,4,4,4,3,3.8, 0.14848485,3,2,2,3,2,2.4,-1.33939394, 1.4,3.1, 1.48787879,-0.595454545,6,5,5,6,6,3,2,3,6,5,4.7,-0.42424242,NA,"negative","moody",0.7601762,1,  219,35, 0.375,0.7601762,6.633550,219,-0.5, 760.1762,-0.659654577
219,219, 99847,21,2,NA, 0, 5,"",1,"",6,5,3,5,5,6,5,6,5,3,5,6,5.000000, 0.62247475, 0.00000000,5.000000,-0.23737374, 0.503787879,4,4,4,4,3,3.8, 0.14848485,3,2,2,3,2,2.4,-1.33939394, 1.4,3.1, 1.48787879,-0.595454545,6,5,5,6,6,3,2,3,6,5,4.7,-0.42424242,NA,"negative","impulsive",0.7754390,1,  219,36, 0.400,0.7754390,6.653429,219,-0.5, 775.4390,-0.616788591
219,219, 99847,21,2,NA, 0, 5,"",1,"",6,5,3,5,5,6,5,6,5,3,5,6,5.000000, 0.62247475, 0.00000000,5.000000,-0.23737374, 0.503787879,4,4,4,4,3,3.8, 0.14848485,3,2,2,3,2,2.4,-1.33939394, 1.4,3.1, 1.48787879,-0.595454545,6,5,5,6,6,3,2,3,6,5,4.7,-0.42424242,NA,"positive","outgoing",0.8253729,1,  219,37, 0.425,0.8253729,6.715835,219, 0.5, 825.3729,-0.476548244
219,219, 99847,21,2,NA, 0, 5,"",1,"",6,5,3,5,5,6,5,6,5,3,5,6,5.000000, 0.62247475, 0.00000000,5.000000,-0.23737374, 0.503787879,4,4,4,4,3,3.8, 0.14848485,3,2,2,3,2,2.4,-1.33939394, 1.4,3.1, 1.48787879,-0.595454545,6,5,5,6,6,3,2,3,6,5,4.7,-0.42424242,NA,"negative","tense",0.7270370,1,  219,39, 0.475,0.7270370,6.588977,219,-0.5, 727.0370,-0.752726740
219,219, 99847,21,2,NA, 0, 5,"",1,"",6,5,3,5,5,6,5,6,5,3,5,6,5.000000, 0.62247475, 0.00000000,5.000000,-0.23737374, 0.503787879,4,4,4,4,3,3.8, 0.14848485,3,2,2,3,2,2.4,-1.33939394, 1.4,3.1, 1.48787879,-0.595454545,6,5,5,6,6,3,2,3,6,5,4.7,-0.42424242,NA,"positive","disciplined",1.6415138,1,  219,14,-0.150,1.6415138,7.403374,219, 0.5,1641.5138, 1.815599160
219,219, 99847,21,2,NA, 0, 5,"",1,"",6,5,3,5,5,6,5,6,5,3,5,6,5.000000, 0.62247475, 0.00000000,5.000000,-0.23737374, 0.503787879,4,4,4,4,3,3.8, 0.14848485,3,2,2,3,2,2.4,-1.33939394, 1.4,3.1, 1.48787879,-0.595454545,6,5,5,6,6,3,2,3,6,5,4.7,-0.42424242,NA,"negative","stubborn",0.7923222,1,  219,15,-0.125,0.7923222,6.674968,219,-0.5, 792.3222,-0.569371982
219,219, 99847,21,2,NA, 0, 5,"",1,"",6,5,3,5,5,6,5,6,5,3,5,6,5.000000, 0.62247475, 0.00000000,5.000000,-0.23737374, 0.503787879,4,4,4,4,3,3.8, 0.14848485,3,2,2,3,2,2.4,-1.33939394, 1.4,3.1, 1.48787879,-0.595454545,6,5,5,6,6,3,2,3,6,5,4.7,-0.42424242,NA,"negative","anxious",0.7262242,1,  219,17,-0.075,0.7262242,6.587859,219,-0.5, 726.2242,-0.755009417
219,219, 99847,21,2,NA, 0, 5,"",1,"",6,5,3,5,5,6,5,6,5,3,5,6,5.000000, 0.62247475, 0.00000000,5.000000,-0.23737374, 0.503787879,4,4,4,4,3,3.8, 0.14848485,3,2,2,3,2,2.4,-1.33939394, 1.4,3.1, 1.48787879,-0.595454545,6,5,5,6,6,3,2,3,6,5,4.7,-0.42424242,NA,"positive","tidy",0.7444069,1,  219,18,-0.050,0.7444069,6.612588,219, 0.5, 744.4069,-0.703942799
219,219, 99847,21,2,NA, 0, 5,"",1,"",6,5,3,5,5,6,5,6,5,3,5,6,5.000000, 0.62247475, 0.00000000,5.000000,-0.23737374, 0.503787879,4,4,4,4,3,3.8, 0.14848485,3,2,2,3,2,2.4,-1.33939394, 1.4,3.1, 1.48787879,-0.595454545,6,5,5,6,6,3,2,3,6,5,4.7,-0.42424242,NA,"positive","persistent",0.7419350,1,  219,20, 0.000,0.7419350,6.609262,219, 0.5, 741.9350,-0.710885246
219,219, 99847,21,2,NA, 0, 5,"",1,"",6,5,3,5,5,6,5,6,5,3,5,6,5.000000, 0.62247475, 0.00000000,5.000000,-0.23737374, 0.503787879,4,4,4,4,3,3.8, 0.14848485,3,2,2,3,2,2.4,-1.33939394, 1.4,3.1, 1.48787879,-0.595454545,6,5,5,6,6,3,2,3,6,5,4.7,-0.42424242,NA,"positive","talented",1.2736559,1,  219,27, 0.175,1.2736559,7.149647,219, 0.5,1273.6559, 0.782463072
219,219, 99847,21,2,NA, 0, 5,"",1,"",6,5,3,5,5,6,5,6,5,3,5,6,5.000000, 0.62247475, 0.00000000,5.000000,-0.23737374, 0.503787879,4,4,4,4,3,3.8, 0.14848485,3,2,2,3,2,2.4,-1.33939394, 1.4,3.1, 1.48787879,-0.595454545,6,5,5,6,6,3,2,3,6,5,4.7,-0.42424242,NA,"negative","clumsy",0.9265630,1,  219, 2,-0.450,0.9265630,6.831482,219,-0.5, 926.5630,-0.192353925
219,219, 99847,21,2,NA, 0, 5,"",1,"",6,5,3,5,5,6,5,6,5,3,5,6,5.000000, 0.62247475, 0.00000000,5.000000,-0.23737374, 0.503787879,4,4,4,4,3,3.8, 0.14848485,3,2,2,3,2,2.4,-1.33939394, 1.4,3.1, 1.48787879,-0.595454545,6,5,5,6,6,3,2,3,6,5,4.7,-0.42424242,NA,"negative","worrying",1.1087210,1,  219, 3,-0.425,1.1087210,7.010962,219,-0.5,1108.7210, 0.319240306
219,219, 99847,21,2,NA, 0, 5,"",1,"",6,5,3,5,5,6,5,6,5,3,5,6,5.000000, 0.62247475, 0.00000000,5.000000,-0.23737374, 0.503787879,4,4,4,4,3,3.8, 0.14848485,3,2,2,3,2,2.4,-1.33939394, 1.4,3.1, 1.48787879,-0.595454545,6,5,5,6,6,3,2,3,6,5,4.7,-0.42424242,NA,"positive","brilliant",0.9422030,1,  219, 5,-0.375,0.9422030,6.848221,219, 0.5, 942.2030,-0.148428627
219,219, 99847,21,2,NA, 0, 5,"",1,"",6,5,3,5,5,6,5,6,5,3,5,6,5.000000, 0.62247475, 0.00000000,5.000000,-0.23737374, 0.503787879,4,4,4,4,3,3.8, 0.14848485,3,2,2,3,2,2.4,-1.33939394, 1.4,3.1, 1.48787879,-0.595454545,6,5,5,6,6,3,2,3,6,5,4.7,-0.42424242,NA,"negative","irritable",0.9248579,1,  219,10,-0.250,0.9248579,6.829640,219,-0.5, 924.8579,-0.197142927
219,219, 99847,21,2,NA, 0, 5,"",1,"",6,5,3,5,5,6,5,6,5,3,5,6,5.000000, 0.62247475, 0.00000000,5.000000,-0.23737374, 0.503787879,4,4,4,4,3,3.8, 0.14848485,3,2,2,3,2,2.4,-1.33939394, 1.4,3.1, 1.48787879,-0.595454545,6,5,5,6,6,3,2,3,6,5,4.7,-0.42424242,NA,"positive","orderly",0.7428968,1,  219,11,-0.225,0.7428968,6.610557,219, 0.5, 742.8968,-0.708184068
219,219, 99847,21,2,NA, 0, 5,"",1,"",6,5,3,5,5,6,5,6,5,3,5,6,5.000000, 0.62247475, 0.00000000,5.000000,-0.23737374, 0.503787879,4,4,4,4,3,3.8, 0.14848485,3,2,2,3,2,2.4,-1.33939394, 1.4,3.1, 1.48787879,-0.595454545,6,5,5,6,6,3,2,3,6,5,4.7,-0.42424242,NA,"negative","cynical",0.8262961,1,  219,12,-0.200,0.8262961,6.716953,219,-0.5, 826.2961,-0.473955539
219,219, 99847,21,2,NA, 0, 5,"",1,"",6,5,3,5,5,6,5,6,5,3,5,6,5.000000, 0.62247475, 0.00000000,5.000000,-0.23737374, 0.503787879,4,4,4,4,3,3.8, 0.14848485,3,2,2,3,2,2.4,-1.33939394, 1.4,3.1, 1.48787879,-0.595454545,6,5,5,6,6,3,2,3,6,5,4.7,-0.42424242,NA,"positive","neat",0.6945150,1,  219,13,-0.175,0.6945150,6.543214,219, 0.5, 694.5150,-0.844065299
220,220, 97741,26,2,NA, 0, 2,"",2,"",4,4,3,2,4,5,5,4,5,2,5,5,4.000000,-0.37752525, 1.00000000,4.500000, 0.76262626, 0.003787879,5,2,4,4,4,3.8, 0.14848485,5,5,4,4,4,4.4, 0.66060606,-0.6,4.1,-0.51212121, 0.404545455,6,6,6,6,6,4,6,4,6,6,5.6, 0.47575758,NA,"positive","proud",0.5938449,1,  220, 1,-0.475,0.5938449,6.386618,220, 0.5, 593.8449,-1.126799210
220,220, 97741,26,2,NA, 0, 2,"",2,"",4,4,3,2,4,5,5,4,5,2,5,5,4.000000,-0.37752525, 1.00000000,4.500000, 0.76262626, 0.003787879,5,2,4,4,4,3.8, 0.14848485,5,5,4,4,4,4.4, 0.66060606,-0.6,4.1,-0.51212121, 0.404545455,6,6,6,6,6,4,6,4,6,6,5.6, 0.47575758,NA,"positive","thrifty",0.7427878,1,  220, 2,-0.450,0.7427878,6.610410,220, 0.5, 742.7878,-0.708490076
220,220, 97741,26,2,NA, 0, 2,"",2,"",4,4,3,2,4,5,5,4,5,2,5,5,4.000000,-0.37752525, 1.00000000,4.500000, 0.76262626, 0.003787879,5,2,4,4,4,3.8, 0.14848485,5,5,4,4,4,4.4, 0.66060606,-0.6,4.1,-0.51212121, 0.404545455,6,6,6,6,6,4,6,4,6,6,5.6, 0.47575758,NA,"positive","courageous",0.9084911,1,  220, 4,-0.400,0.9084911,6.811785,220, 0.5, 908.4911,-0.243109176
220,220, 97741,26,2,NA, 0, 2,"",2,"",4,4,3,2,4,5,5,4,5,2,5,5,4.000000,-0.37752525, 1.00000000,4.500000, 0.76262626, 0.003787879,5,2,4,4,4,3.8, 0.14848485,5,5,4,4,4,4.4, 0.66060606,-0.6,4.1,-0.51212121, 0.404545455,6,6,6,6,6,4,6,4,6,6,5.6, 0.47575758,NA,"negative","tense",0.9761720,1,  220, 6,-0.350,0.9761720,6.883639,220,-0.5, 976.1720,-0.053026247
220,220, 97741,26,2,NA, 0, 2,"",2,"",4,4,3,2,4,5,5,4,5,2,5,5,4.000000,-0.37752525, 1.00000000,4.500000, 0.76262626, 0.003787879,5,2,4,4,4,3.8, 0.14848485,5,5,4,4,4,4.4, 0.66060606,-0.6,4.1,-0.51212121, 0.404545455,6,6,6,6,6,4,6,4,6,6,5.6, 0.47575758,NA,"positive","enthusiastic",0.6410530,1,  220, 7,-0.325,0.6410530,6.463112,220, 0.5, 641.0530,-0.994214437
220,220, 97741,26,2,NA, 0, 2,"",2,"",4,4,3,2,4,5,5,4,5,2,5,5,4.000000,-0.37752525, 1.00000000,4.500000, 0.76262626, 0.003787879,5,2,4,4,4,3.8, 0.14848485,5,5,4,4,4,4.4, 0.66060606,-0.6,4.1,-0.51212121, 0.404545455,6,6,6,6,6,4,6,4,6,6,5.6, 0.47575758,NA,"negative","irritable",0.9588299,1,  220, 8,-0.300,0.9588299,6.865714,220,-0.5, 958.8299,-0.101731841
220,220, 97741,26,2,NA, 0, 2,"",2,"",4,4,3,2,4,5,5,4,5,2,5,5,4.000000,-0.37752525, 1.00000000,4.500000, 0.76262626, 0.003787879,5,2,4,4,4,3.8, 0.14848485,5,5,4,4,4,4.4, 0.66060606,-0.6,4.1,-0.51212121, 0.404545455,6,6,6,6,6,4,6,4,6,6,5.6, 0.47575758,NA,"positive","tender",0.7598450,1,  220,11,-0.225,0.7598450,6.633114,220, 0.5, 759.8450,-0.660584657
220,220, 97741,26,2,NA, 0, 2,"",2,"",4,4,3,2,4,5,5,4,5,2,5,5,4.000000,-0.37752525, 1.00000000,4.500000, 0.76262626, 0.003787879,5,2,4,4,4,3.8, 0.14848485,5,5,4,4,4,4.4, 0.66060606,-0.6,4.1,-0.51212121, 0.404545455,6,6,6,6,6,4,6,4,6,6,5.6, 0.47575758,NA,"positive","orderly",0.7263620,1,  220,12,-0.200,0.7263620,6.588048,220, 0.5, 726.3620,-0.754622386
220,220, 97741,26,2,NA, 0, 2,"",2,"",4,4,3,2,4,5,5,4,5,2,5,5,4.000000,-0.37752525, 1.00000000,4.500000, 0.76262626, 0.003787879,5,2,4,4,4,3.8, 0.14848485,5,5,4,4,4,4.4, 0.66060606,-0.6,4.1,-0.51212121, 0.404545455,6,6,6,6,6,4,6,4,6,6,5.6, 0.47575758,NA,"positive","idealistic",0.6920700,1,  220,13,-0.175,0.6920700,6.539687,220, 0.5, 692.0700,-0.850932081
220,220, 97741,26,2,NA, 0, 2,"",2,"",4,4,3,2,4,5,5,4,5,2,5,5,4.000000,-0.37752525, 1.00000000,4.500000, 0.76262626, 0.003787879,5,2,4,4,4,3.8, 0.14848485,5,5,4,4,4,4.4, 0.66060606,-0.6,4.1,-0.51212121, 0.404545455,6,6,6,6,6,4,6,4,6,6,5.6, 0.47575758,NA,"positive","wise",0.5441959,1,  220,14,-0.150,0.5441959,6.299309,220, 0.5, 544.1959,-1.266239385
220,220, 97741,26,2,NA, 0, 2,"",2,"",4,4,3,2,4,5,5,4,5,2,5,5,4.000000,-0.37752525, 1.00000000,4.500000, 0.76262626, 0.003787879,5,2,4,4,4,3.8, 0.14848485,5,5,4,4,4,4.4, 0.66060606,-0.6,4.1,-0.51212121, 0.404545455,6,6,6,6,6,4,6,4,6,6,5.6, 0.47575758,NA,"positive","disciplined",0.8743329,1,  220,15,-0.125,0.8743329,6.773461,220, 0.5, 874.3329,-0.339043222
220,220, 97741,26,2,NA, 0, 2,"",2,"",4,4,3,2,4,5,5,4,5,2,5,5,4.000000,-0.37752525, 1.00000000,4.500000, 0.76262626, 0.003787879,5,2,4,4,4,3.8, 0.14848485,5,5,4,4,4,4.4, 0.66060606,-0.6,4.1,-0.51212121, 0.404545455,6,6,6,6,6,4,6,4,6,6,5.6, 0.47575758,NA,"positive","trusting",0.7425721,1,  220,17,-0.075,0.7425721,6.610120,220, 0.5, 742.5721,-0.709096067
220,220, 97741,26,2,NA, 0, 2,"",2,"",4,4,3,2,4,5,5,4,5,2,5,5,4.000000,-0.37752525, 1.00000000,4.500000, 0.76262626, 0.003787879,5,2,4,4,4,3.8, 0.14848485,5,5,4,4,4,4.4, 0.66060606,-0.6,4.1,-0.51212121, 0.404545455,6,6,6,6,6,4,6,4,6,6,5.6, 0.47575758,NA,"positive","artistic",0.7259920,1,  220,18,-0.050,0.7259920,6.587539,220, 0.5, 725.9920,-0.755661611
220,220, 97741,26,2,NA, 0, 2,"",2,"",4,4,3,2,4,5,5,4,5,2,5,5,4.000000,-0.37752525, 1.00000000,4.500000, 0.76262626, 0.003787879,5,2,4,4,4,3.8, 0.14848485,5,5,4,4,4,4.4, 0.66060606,-0.6,4.1,-0.51212121, 0.404545455,6,6,6,6,6,4,6,4,6,6,5.6, 0.47575758,NA,"negative","moody",1.3103042,1,  220,20, 0.000,1.3103042,7.178015,220,-0.5,1310.3042, 0.885390456
220,220, 97741,26,2,NA, 0, 2,"",2,"",4,4,3,2,4,5,5,4,5,2,5,5,4.000000,-0.37752525, 1.00000000,4.500000, 0.76262626, 0.003787879,5,2,4,4,4,3.8, 0.14848485,5,5,4,4,4,4.4, 0.66060606,-0.6,4.1,-0.51212121, 0.404545455,6,6,6,6,6,4,6,4,6,6,5.6, 0.47575758,NA,"positive","persistent",0.7584820,1,  220,22, 0.050,0.7584820,6.631319,220, 0.5, 758.4820,-0.664412779
220,220, 97741,26,2,NA, 0, 2,"",2,"",4,4,3,2,4,5,5,4,5,2,5,5,4.000000,-0.37752525, 1.00000000,4.500000, 0.76262626, 0.003787879,5,2,4,4,4,3.8, 0.14848485,5,5,4,4,4,4.4, 0.66060606,-0.6,4.1,-0.51212121, 0.404545455,6,6,6,6,6,4,6,4,6,6,5.6, 0.47575758,NA,"positive","ambitious",1.0416322,1,  220,24, 0.100,1.0416322,6.948544,220, 0.5,1041.6322, 0.130819999
220,220, 97741,26,2,NA, 0, 2,"",2,"",4,4,3,2,4,5,5,4,5,2,5,5,4.000000,-0.37752525, 1.00000000,4.500000, 0.76262626, 0.003787879,5,2,4,4,4,3.8, 0.14848485,5,5,4,4,4,4.4, 0.66060606,-0.6,4.1,-0.51212121, 0.404545455,6,6,6,6,6,4,6,4,6,6,5.6, 0.47575758,NA,"positive","brilliant",0.8400350,1,  220,27, 0.175,0.8400350,6.733444,220, 0.5, 840.0350,-0.435369656
220,220, 97741,26,2,NA, 0, 2,"",2,"",4,4,3,2,4,5,5,4,5,2,5,5,4.000000,-0.37752525, 1.00000000,4.500000, 0.76262626, 0.003787879,5,2,4,4,4,3.8, 0.14848485,5,5,4,4,4,4.4, 0.66060606,-0.6,4.1,-0.51212121, 0.404545455,6,6,6,6,6,4,6,4,6,6,5.6, 0.47575758,NA,"positive","neat",0.7444181,1,  220,30, 0.250,0.7444181,6.612603,220, 0.5, 744.4181,-0.703911330
220,220, 97741,26,2,NA, 0, 2,"",2,"",4,4,3,2,4,5,5,4,5,2,5,5,4.000000,-0.37752525, 1.00000000,4.500000, 0.76262626, 0.003787879,5,2,4,4,4,3.8, 0.14848485,5,5,4,4,4,4.4, 0.66060606,-0.6,4.1,-0.51212121, 0.404545455,6,6,6,6,6,4,6,4,6,6,5.6, 0.47575758,NA,"positive","talented",0.7087421,1,  220,31, 0.275,0.7087421,6.563492,220, 0.5, 708.7421,-0.804108069
220,220, 97741,26,2,NA, 0, 2,"",2,"",4,4,3,2,4,5,5,4,5,2,5,5,4.000000,-0.37752525, 1.00000000,4.500000, 0.76262626, 0.003787879,5,2,4,4,4,3.8, 0.14848485,5,5,4,4,4,4.4, 0.66060606,-0.6,4.1,-0.51212121, 0.404545455,6,6,6,6,6,4,6,4,6,6,5.6, 0.47575758,NA,"positive","outgoing",0.5760629,1,  220,32, 0.300,0.5760629,6.356217,220, 0.5, 576.0629,-1.176740224
220,220, 97741,26,2,NA, 0, 2,"",2,"",4,4,3,2,4,5,5,4,5,2,5,5,4.000000,-0.37752525, 1.00000000,4.500000, 0.76262626, 0.003787879,5,2,4,4,4,3.8, 0.14848485,5,5,4,4,4,4.4, 0.66060606,-0.6,4.1,-0.51212121, 0.404545455,6,6,6,6,6,4,6,4,6,6,5.6, 0.47575758,NA,"positive","inventive",1.1422141,1,  220,33, 0.325,1.1422141,7.040724,220, 0.5,1142.2141, 0.413306159
220,220, 97741,26,2,NA, 0, 2,"",2,"",4,4,3,2,4,5,5,4,5,2,5,5,4.000000,-0.37752525, 1.00000000,4.500000, 0.76262626, 0.003787879,5,2,4,4,4,3.8, 0.14848485,5,5,4,4,4,4.4, 0.66060606,-0.6,4.1,-0.51212121, 0.404545455,6,6,6,6,6,4,6,4,6,6,5.6, 0.47575758,NA,"positive","confident",0.7590220,1,  220,37, 0.425,0.7590220,6.632031,220, 0.5, 759.0220,-0.662896128
221,221, 96043,30,1,NA, 0, 2,"",3,"",4,4,5,6,2,5,5,5,6,4,4,4,4.500000, 0.12247475,-0.75000000,4.125000,-0.98737374,-0.371212121,3,2,2,4,4,3.0,-0.65151515,4,4,4,4,4,4.0, 0.26060606,-1.0,3.5,-0.91212121,-0.195454545,3,2,7,5,6,2,6,1,2,2,3.6,-1.52424242,NA,"negative","cynical",1.4094579,1,  221,18,-0.050,1.4094579,7.250960,221,-0.5,1409.4579, 1.163865691
221,221, 96043,30,1,NA, 0, 2,"",3,"",4,4,5,6,2,5,5,5,6,4,4,4,4.500000, 0.12247475,-0.75000000,4.125000,-0.98737374,-0.371212121,3,2,2,4,4,3.0,-0.65151515,4,4,4,4,4,4.0, 0.26060606,-1.0,3.5,-0.91212121,-0.195454545,3,2,7,5,6,2,6,1,2,2,3.6,-1.52424242,NA,"positive","idealistic",1.4229231,1,  221,26, 0.150,1.4229231,7.260469,221, 0.5,1422.9231, 1.201682869
221,221, 96043,30,1,NA, 0, 2,"",3,"",4,4,5,6,2,5,5,5,6,4,4,4,4.500000, 0.12247475,-0.75000000,4.125000,-0.98737374,-0.371212121,3,2,2,4,4,3.0,-0.65151515,4,4,4,4,4,4.0, 0.26060606,-1.0,3.5,-0.91212121,-0.195454545,3,2,7,5,6,2,6,1,2,2,3.6,-1.52424242,NA,"negative","withdrawn",1.6589041,1,  221,28, 0.200,1.6589041,7.413912,221,-0.5,1658.9041, 1.864440017
221,221, 96043,30,1,NA, 0, 2,"",3,"",4,4,5,6,2,5,5,5,6,4,4,4,4.500000, 0.12247475,-0.75000000,4.125000,-0.98737374,-0.371212121,3,2,2,4,4,3.0,-0.65151515,4,4,4,4,4,4.0, 0.26060606,-1.0,3.5,-0.91212121,-0.195454545,3,2,7,5,6,2,6,1,2,2,3.6,-1.52424242,NA,"positive","neat",1.0111320,1,  221,29, 0.225,1.0111320,6.918826,221, 0.5,1011.1320, 0.045159675
221,221, 96043,30,1,NA, 0, 2,"",3,"",4,4,5,6,2,5,5,5,6,4,4,4,4.500000, 0.12247475,-0.75000000,4.125000,-0.98737374,-0.371212121,3,2,2,4,4,3.0,-0.65151515,4,4,4,4,4,4.0, 0.26060606,-1.0,3.5,-0.91212121,-0.195454545,3,2,7,5,6,2,6,1,2,2,3.6,-1.52424242,NA,"negative","stubborn",1.2758410,1,  221,30, 0.250,1.2758410,7.151361,221,-0.5,1275.8410, 0.788599987
221,221, 96043,30,1,NA, 0, 2,"",3,"",4,4,5,6,2,5,5,5,6,4,4,4,4.500000, 0.12247475,-0.75000000,4.125000,-0.98737374,-0.371212121,3,2,2,4,4,3.0,-0.65151515,4,4,4,4,4,4.0, 0.26060606,-1.0,3.5,-0.91212121,-0.195454545,3,2,7,5,6,2,6,1,2,2,3.6,-1.52424242,NA,"positive","orderly",0.8429379,1,  221,31, 0.275,0.8429379,6.736893,221, 0.5, 842.9379,-0.427216569
221,221, 96043,30,1,NA, 0, 2,"",3,"",4,4,5,6,2,5,5,5,6,4,4,4,4.500000, 0.12247475,-0.75000000,4.125000,-0.98737374,-0.371212121,3,2,2,4,4,3.0,-0.65151515,4,4,4,4,4,4.0, 0.26060606,-1.0,3.5,-0.91212121,-0.195454545,3,2,7,5,6,2,6,1,2,2,3.6,-1.52424242,NA,"positive","ambitious",0.9755502,1,  221,32, 0.300,0.9755502,6.883002,221, 0.5, 975.5502,-0.054772571
221,221, 96043,30,1,NA, 0, 2,"",3,"",4,4,5,6,2,5,5,5,6,4,4,4,4.500000, 0.12247475,-0.75000000,4.125000,-0.98737374,-0.371212121,3,2,2,4,4,3.0,-0.65151515,4,4,4,4,4,4.0, 0.26060606,-1.0,3.5,-0.91212121,-0.195454545,3,2,7,5,6,2,6,1,2,2,3.6,-1.52424242,NA,"positive","proud",1.2102442,1,  221,35, 0.375,1.2102442,7.098577,221, 0.5,1210.2442, 0.604370058
221,221, 96043,30,1,NA, 0, 2,"",3,"",4,4,5,6,2,5,5,5,6,4,4,4,4.500000, 0.12247475,-0.75000000,4.125000,-0.98737374,-0.371212121,3,2,2,4,4,3.0,-0.65151515,4,4,4,4,4,4.0, 0.26060606,-1.0,3.5,-0.91212121,-0.195454545,3,2,7,5,6,2,6,1,2,2,3.6,-1.52424242,NA,"positive","trusting",1.0259349,1,  221,36, 0.400,1.0259349,6.933360,221, 0.5,1025.9349, 0.086733998
221,221, 96043,30,1,NA, 0, 2,"",3,"",4,4,5,6,2,5,5,5,6,4,4,4,4.500000, 0.12247475,-0.75000000,4.125000,-0.98737374,-0.371212121,3,2,2,4,4,3.0,-0.65151515,4,4,4,4,4,4.0, 0.26060606,-1.0,3.5,-0.91212121,-0.195454545,3,2,7,5,6,2,6,1,2,2,3.6,-1.52424242,NA,"negative","gullible",1.2758930,1,  221,37, 0.425,1.2758930,7.151402,221,-0.5,1275.8930, 0.788745960
221,221, 96043,30,1,NA, 0, 2,"",3,"",4,4,5,6,2,5,5,5,6,4,4,4,4.500000, 0.12247475,-0.75000000,4.125000,-0.98737374,-0.371212121,3,2,2,4,4,3.0,-0.65151515,4,4,4,4,4,4.0, 0.26060606,-1.0,3.5,-0.91212121,-0.195454545,3,2,7,5,6,2,6,1,2,2,3.6,-1.52424242,NA,"negative","clumsy",1.4431369,1,  221,38, 0.450,1.4431369,7.274574,221,-0.5,1443.1369, 1.258453834
221,221, 96043,30,1,NA, 0, 2,"",3,"",4,4,5,6,2,5,5,5,6,4,4,4,4.500000, 0.12247475,-0.75000000,4.125000,-0.98737374,-0.371212121,3,2,2,4,4,3.0,-0.65151515,4,4,4,4,4,4.0, 0.26060606,-1.0,3.5,-0.91212121,-0.195454545,3,2,7,5,6,2,6,1,2,2,3.6,-1.52424242,NA,"negative","boring",1.4429121,1,  221,20, 0.000,1.4429121,7.274419,221,-0.5,1442.9121, 1.257822400
221,221, 96043,30,1,NA, 0, 2,"",3,"",4,4,5,6,2,5,5,5,6,4,4,4,4.500000, 0.12247475,-0.75000000,4.125000,-0.98737374,-0.371212121,3,2,2,4,4,3.0,-0.65151515,4,4,4,4,4,4.0, 0.26060606,-1.0,3.5,-0.91212121,-0.195454545,3,2,7,5,6,2,6,1,2,2,3.6,-1.52424242,NA,"positive","tender",1.9265790,1,  221,24, 0.100,1.9265790,7.563501,221, 0.5,1926.5790, 2.616210193
221,221, 96043,30,1,NA, 0, 2,"",3,"",4,4,5,6,2,5,5,5,6,4,4,4,4.500000, 0.12247475,-0.75000000,4.125000,-0.98737374,-0.371212121,3,2,2,4,4,3.0,-0.65151515,4,4,4,4,4,4.0, 0.26060606,-1.0,3.5,-0.91212121,-0.195454545,3,2,7,5,6,2,6,1,2,2,3.6,-1.52424242,NA,"positive","tidy",0.9109099,1,  221,25, 0.125,0.9109099,6.814444,221, 0.5, 910.9099,-0.236316053
221,221, 96043,30,1,NA, 0, 2,"",3,"",4,4,5,6,2,5,5,5,6,4,4,4,4.500000, 0.12247475,-0.75000000,4.125000,-0.98737374,-0.371212121,3,2,2,4,4,3.0,-0.65151515,4,4,4,4,4,4.0, 0.26060606,-1.0,3.5,-0.91212121,-0.195454545,3,2,7,5,6,2,6,1,2,2,3.6,-1.52424242,NA,"positive","courageous",1.3750410,1,  221, 1,-0.475,1.3750410,7.226239,221, 0.5,1375.0410, 1.067205126
