ID,pracword,valence,word,trials_2.thisRepN,trials_2.thisTrialN,trials_2.thisN,trials_2.thisIndex,trials.thisRepN,trials.thisTrialN,trials.thisN,trials.thisIndex,key_resp_3.keys,key_resp_3.rt,key_resp_4.keys,key_resp_4.rt,response.keys,response.corr,response.rt,date,frameRate,expName,session,participant201,,negative,insecure,,,,,0,0,0,22,,,,,up,0,0.77643013,2016_Sep_30_1104,60.00632353,heterogeneity160929b,1,201201,,negative,antisocial,,,,,0,1,1,33,,,,,down,0,0.941252947,2016_Sep_30_1104,60.00632353,heterogeneity160929b,1,201201,,negative,moody,,,,,0,2,2,30,,,,,down,0,0.79353714,2016_Sep_30_1104,60.00632353,heterogeneity160929b,1,201201,,negative,impulsive,,,,,0,3,3,21,,,,,down,0,0.775604963,2016_Sep_30_1104,60.00632353,heterogeneity160929b,1,201201,,negative,tense,,,,,0,4,4,26,,,,,down,0,0.726908922,2016_Sep_30_1104,60.00632353,heterogeneity160929b,1,201201,,positive,tender,,,,,0,5,5,6,,,,,down,0,0.893244982,2016_Sep_30_1104,60.00632353,heterogeneity160929b,1,201201,,negative,irritable,,,,,0,6,6,27,,,,,down,0,0.559097052,2016_Sep_30_1104,60.00632353,heterogeneity160929b,1,201201,,positive,thrifty,,,,,0,7,7,2,,,,,up,0,0.809092999,2016_Sep_30_1104,60.00632353,heterogeneity160929b,1,201201,,positive,brilliant,,,,,0,8,8,12,,,,,down,0,0.908303976,2016_Sep_30_1104,60.00632353,heterogeneity160929b,1,201201,,positive,wise,,,,,0,9,9,19,,,,,up,0,0.977444172,2016_Sep_30_1104,60.00632353,heterogeneity160929b,1,201201,,negative,boring,,,,,0,10,10,20,,,,,down,0,1.059674025,2016_Sep_30_1104,60.00632353,heterogeneity160929b,1,201201,,negative,clumsy,,,,,0,11,11,23,,,,,up,0,0.826735973,2016_Sep_30_1104,60.00632353,heterogeneity160929b,1,201201,,negative,anxious,,,,,0,12,12,35,,,,,up,0,0.843029976,2016_Sep_30_1104,60.00632353,heterogeneity160929b,1,201201,,positive,enthusiastic,,,,,0,13,13,16,,,,,up,0,0.840566874,2016_Sep_30_1104,60.00632353,heterogeneity160929b,1,201201,,positive,ambitious,,,,,0,14,14,10,,,,,up,0,0.675525904,2016_Sep_30_1104,60.00632353,heterogeneity160929b,1,201201,,negative,childish,,,,,0,15,15,29,,,,,down,0,1.026120901,2016_Sep_30_1104,60.00632353,heterogeneity160929b,1,201201,,positive,outgoing,,,,,0,16,16,17,,,,,None,0,,2016_Sep_30_1104,60.00632353,heterogeneity160929b,1,201201,,negative,fearful,,,,,0,17,17,24,,,,,up,0,1.559458017,2016_Sep_30_1104,60.00632353,heterogeneity160929b,1,201201,,positive,courageous,,,,,0,18,18,15,,,,,up,0,1.175184965,2016_Sep_30_1104,60.00632353,heterogeneity160929b,1,201201,,positive,confident,,,,,0,19,19,7,,,,,up,0,0.991899014,2016_Sep_30_1104,60.00632353,heterogeneity160929b,1,201201,,negative,timid,,,,,0,20,20,28,,,,,down,0,0.976801157,2016_Sep_30_1104,60.00632353,heterogeneity160929b,1,201201,,positive,tidy,,,,,0,21,21,4,,,,,down,0,1.060844898,2016_Sep_30_1104,60.00632353,heterogeneity160929b,1,201201,,positive,persistent,,,,,0,22,22,13,,,,,up,0,0.75861001,2016_Sep_30_1104,60.00632353,heterogeneity160929b,1,201201,,negative,forgetful,,,,,0,23,23,31,,,,,down,0,0.992153168,2016_Sep_30_1104,60.00632353,heterogeneity160929b,1,201201,,positive,orderly,,,,,0,24,24,14,,,,,up,0,0.792772055,2016_Sep_30_1104,60.00632353,heterogeneity160929b,1,201201,,positive,talented,,,,,0,25,25,0,,,,,up,0,0.990331173,2016_Sep_30_1104,60.00632353,heterogeneity160929b,1,201201,,negative,messy,,,,,0,26,26,36,,,,,up,0,0.993607998,2016_Sep_30_1104,60.00632353,heterogeneity160929b,1,201201,,positive,trusting,,,,,0,27,27,8,,,,,up,0,1.192473888,2016_Sep_30_1104,60.00632353,heterogeneity160929b,1,201201,,positive,proud,,,,,0,28,28,11,,,,,up,0,1.343604088,2016_Sep_30_1104,60.00632353,heterogeneity160929b,1,201201,,positive,disciplined,,,,,0,29,29,1,,,,,up,0,0.774923801,2016_Sep_30_1104,60.00632353,heterogeneity160929b,1,201201,,negative,stubborn,,,,,0,30,30,39,,,,,up,0,0.626119852,2016_Sep_30_1104,60.00632353,heterogeneity160929b,1,201201,,negative,inhibited,,,,,0,31,31,25,,,,,up,0,1.075531006,2016_Sep_30_1104,60.00632353,heterogeneity160929b,1,201201,,positive,neat,,,,,0,32,32,5,,,,,down,0,0.794030905,2016_Sep_30_1104,60.00632353,heterogeneity160929b,1,201201,,negative,worrying,,,,,0,33,33,32,,,,,up,0,0.809218168,2016_Sep_30_1104,60.00632353,heterogeneity160929b,1,201201,,negative,cynical,,,,,0,34,34,37,,,,,up,0,0.659615994,2016_Sep_30_1104,60.00632353,heterogeneity160929b,1,201201,,negative,gullible,,,,,0,35,35,34,,,,,down,0,0.742600918,2016_Sep_30_1104,60.00632353,heterogeneity160929b,1,201201,,positive,idealistic,,,,,0,36,36,3,,,,,up,0,0.625544786,2016_Sep_30_1104,60.00632353,heterogeneity160929b,1,201201,,negative,withdrawn,,,,,0,37,37,38,,,,,down,0,0.958754063,2016_Sep_30_1104,60.00632353,heterogeneity160929b,1,201201,,positive,artistic,,,,,0,38,38,9,,,,,down,0,0.875257015,2016_Sep_30_1104,60.00632353,heterogeneity160929b,1,201201,,positive,inventive,,,,,0,39,39,18,,,,,up,0,0.742246151,2016_Sep_30_1104,60.00632353,heterogeneity160929b,1,201202,,negative,insecure,,,,,0,0,0,22,,,,,down,0,1.476244926,2016_Sep_30_1140,59.97534811,heterogeneity160929b,1,202202,,positive,disciplined,,,,,0,1,1,1,,,,,up,0,0.72498703,2016_Sep_30_1140,59.97534811,heterogeneity160929b,1,202202,,negative,irritable,,,,,0,2,2,27,,,,,up,0,1.108602047,2016_Sep_30_1140,59.97534811,heterogeneity160929b,1,202202,,negative,withdrawn,,,,,0,3,3,38,,,,,down,0,1.358779907,2016_Sep_30_1140,59.97534811,heterogeneity160929b,1,202202,,positive,trusting,,,,,0,4,4,8,,,,,up,0,0.725842953,2016_Sep_30_1140,59.97534811,heterogeneity160929b,1,202202,,positive,talented,,,,,0,5,5,0,,,,,up,0,0.592477083,2016_Sep_30_1140,59.97534811,heterogeneity160929b,1,202202,,negative,childish,,,,,0,6,6,29,,,,,down,0,1.625715971,2016_Sep_30_1140,59.97534811,heterogeneity160929b,1,202202,,negative,messy,,,,,0,7,7,36,,,,,down,0,1.510065079,2016_Sep_30_1140,59.97534811,heterogeneity160929b,1,202202,,negative,worrying,,,,,0,8,8,32,,,,,up,0,0.808880091,2016_Sep_30_1140,59.97534811,heterogeneity160929b,1,202202,,positive,persistent,,,,,0,9,9,13,,,,,up,0,0.757745981,2016_Sep_30_1140,59.97534811,heterogeneity160929b,1,202202,,positive,courageous,,,,,0,10,10,15,,,,,up,0,0.591758966,2016_Sep_30_1140,59.97534811,heterogeneity160929b,1,202202,,negative,fearful,,,,,0,11,11,24,,,,,down,0,2.126034021,2016_Sep_30_1140,59.97534811,heterogeneity160929b,1,202202,,negative,stubborn,,,,,0,12,12,39,,,,,up,0,0.709203005,2016_Sep_30_1140,59.97534811,heterogeneity160929b,1,202202,,positive,proud,,,,,0,13,13,11,,,,,up,0,0.576113939,2016_Sep_30_1140,59.97534811,heterogeneity160929b,1,202202,,negative,tense,,,,,0,14,14,26,,,,,up,0,0.876847982,2016_Sep_30_1140,59.97534811,heterogeneity160929b,1,202202,,positive,orderly,,,,,0,15,15,14,,,,,up,0,0.792936087,2016_Sep_30_1140,59.97534811,heterogeneity160929b,1,202202,,positive,tidy,,,,,0,16,16,4,,,,,up,0,1.444204092,2016_Sep_30_1140,59.97534811,heterogeneity160929b,1,202202,,positive,confident,,,,,0,17,17,7,,,,,up,0,0.575605869,2016_Sep_30_1140,59.97534811,heterogeneity160929b,1,202202,,negative,moody,,,,,0,18,18,30,,,,,up,0,0.893532038,2016_Sep_30_1140,59.97534811,heterogeneity160929b,1,202202,,negative,clumsy,,,,,0,19,19,23,,,,,down,0,1.242665052,2016_Sep_30_1140,59.97534811,heterogeneity160929b,1,202202,,negative,boring,,,,,0,20,20,20,,,,,up,0,1.109902859,2016_Sep_30_1140,59.97534811,heterogeneity160929b,1,202202,,positive,ambitious,,,,,0,21,21,10,,,,,up,0,0.775460005,2016_Sep_30_1140,59.97534811,heterogeneity160929b,1,202202,,negative,timid,,,,,0,22,22,28,,,,,down,0,1.043532848,2016_Sep_30_1140,59.97534811,heterogeneity160929b,1,202202,,negative,inhibited,,,,,0,23,23,25,,,,,down,0,1.308906078,2016_Sep_30_1140,59.97534811,heterogeneity160929b,1,202202,,positive,enthusiastic,,,,,0,24,24,16,,,,,up,0,1.324153185,2016_Sep_30_1140,59.97534811,heterogeneity160929b,1,202202,,positive,wise,,,,,0,25,25,19,,,,,up,0,1.308738947,2016_Sep_30_1140,59.97534811,heterogeneity160929b,1,202202,,positive,thrifty,,,,,0,26,26,2,,,,,down,0,1.342797995,2016_Sep_30_1140,59.97534811,heterogeneity160929b,1,202202,,positive,outgoing,,,,,0,27,27,17,,,,,up,0,0.608772993,2016_Sep_30_1140,59.97534811,heterogeneity160929b,1,202202,,positive,neat,,,,,0,28,28,5,,,,,up,0,0.611086845,2016_Sep_30_1140,59.97534811,heterogeneity160929b,1,202202,,positive,inventive,,,,,0,29,29,18,,,,,down,0,1.092108965,2016_Sep_30_1140,59.97534811,heterogeneity160929b,1,202202,,negative,forgetful,,,,,0,30,30,31,,,,,up,0,0.992635012,2016_Sep_30_1140,59.97534811,heterogeneity160929b,1,202202,,negative,antisocial,,,,,0,31,31,33,,,,,down,0,1.191838026,2016_Sep_30_1140,59.97534811,heterogeneity160929b,1,202202,,negative,anxious,,,,,0,32,32,35,,,,,up,0,0.926002026,2016_Sep_30_1140,59.97534811,heterogeneity160929b,1,202202,,positive,tender,,,,,0,33,33,6,,,,,up,0,0.792806864,2016_Sep_30_1140,59.97534811,heterogeneity160929b,1,202202,,positive,idealistic,,,,,0,34,34,3,,,,,up,0,0.758482933,2016_Sep_30_1140,59.97534811,heterogeneity160929b,1,202202,,positive,brilliant,,,,,0,35,35,12,,,,,up,0,0.575559855,2016_Sep_30_1140,59.97534811,heterogeneity160929b,1,202202,,negative,cynical,,,,,0,36,36,37,,,,,up,0,0.393021107,2016_Sep_30_1140,59.97534811,heterogeneity160929b,1,202202,,negative,gullible,,,,,0,37,37,34,,,,,down,0,1.026015997,2016_Sep_30_1140,59.97534811,heterogeneity160929b,1,202202,,positive,artistic,,,,,0,38,38,9,,,,,down,0,1.242034912,2016_Sep_30_1140,59.97534811,heterogeneity160929b,1,202202,,negative,impulsive,,,,,0,39,39,21,,,,,up,0,1.642158031,2016_Sep_30_1140,59.97534811,heterogeneity160929b,1,202204,,positive,artistic,,,,,0,0,0,9,,,,,up,0,0.97615695,2016_Sep_30_1202,60.00452076,heterogeneity160929b,1,204204,,negative,gullible,,,,,0,1,1,34,,,,,down,0,0.742563009,2016_Sep_30_1202,60.00452076,heterogeneity160929b,1,204204,,positive,neat,,,,,0,2,2,5,,,,,up,0,0.594193935,2016_Sep_30_1202,60.00452076,heterogeneity160929b,1,204204,,negative,impulsive,,,,,0,3,3,21,,,,,down,0,0.775370121,2016_Sep_30_1202,60.00452076,heterogeneity160929b,1,204204,,positive,thrifty,,,,,0,4,4,2,,,,,up,0,0.809697151,2016_Sep_30_1202,60.00452076,heterogeneity160929b,1,204204,,positive,ambitious,,,,,0,5,5,10,,,,,up,0,0.592213154,2016_Sep_30_1202,60.00452076,heterogeneity160929b,1,204204,,positive,trusting,,,,,0,6,6,8,,,,,up,0,0.809190035,2016_Sep_30_1202,60.00452076,heterogeneity160929b,1,204204,,positive,outgoing,,,,,0,7,7,17,,,,,down,0,0.842602015,2016_Sep_30_1202,60.00452076,heterogeneity160929b,1,204204,,positive,proud,,,,,0,8,8,11,,,,,up,0,0.943104982,2016_Sep_30_1202,60.00452076,heterogeneity160929b,1,204204,,negative,boring,,,,,0,9,9,20,,,,,down,0,0.609926224,2016_Sep_30_1202,60.00452076,heterogeneity160929b,1,204204,,positive,courageous,,,,,0,10,10,15,,,,,up,0,1.091324806,2016_Sep_30_1202,60.00452076,heterogeneity160929b,1,204204,,negative,insecure,,,,,0,11,11,22,,,,,down,0,0.875722885,2016_Sep_30_1202,60.00452076,heterogeneity160929b,1,204204,,positive,tender,,,,,0,12,12,6,,,,,up,0,0.709933996,2016_Sep_30_1202,60.00452076,heterogeneity160929b,1,204204,,negative,clumsy,,,,,0,13,13,23,,,,,down,0,0.959984064,2016_Sep_30_1202,60.00452076,heterogeneity160929b,1,204204,,negative,moody,,,,,0,14,14,30,,,,,down,0,0.743292093,2016_Sep_30_1202,60.00452076,heterogeneity160929b,1,204204,,negative,childish,,,,,0,15,15,29,,,,,down,0,0.725885868,2016_Sep_30_1202,60.00452076,heterogeneity160929b,1,204204,,negative,inhibited,,,,,0,16,16,25,,,,,down,0,1.058744907,2016_Sep_30_1202,60.00452076,heterogeneity160929b,1,204204,,negative,withdrawn,,,,,0,17,17,38,,,,,down,0,0.792232037,2016_Sep_30_1202,60.00452076,heterogeneity160929b,1,204204,,negative,messy,,,,,0,18,18,36,,,,,down,0,0.726948023,2016_Sep_30_1202,60.00452076,heterogeneity160929b,1,204204,,negative,antisocial,,,,,0,19,19,33,,,,,down,0,0.858376026,2016_Sep_30_1202,60.00452076,heterogeneity160929b,1,204204,,positive,inventive,,,,,0,20,20,18,,,,,down,0,1.391800165,2016_Sep_30_1202,60.00452076,heterogeneity160929b,1,204204,,negative,timid,,,,,0,21,21,28,,,,,down,0,1.176858902,2016_Sep_30_1202,60.00452076,heterogeneity160929b,1,204204,,positive,brilliant,,,,,0,22,22,12,,,,,up,0,0.858991861,2016_Sep_30_1202,60.00452076,heterogeneity160929b,1,204204,,negative,forgetful,,,,,0,23,23,31,,,,,down,0,0.825510025,2016_Sep_30_1202,60.00452076,heterogeneity160929b,1,204204,,positive,orderly,,,,,0,24,24,14,,,,,up,0,0.792859077,2016_Sep_30_1202,60.00452076,heterogeneity160929b,1,204204,,negative,fearful,,,,,0,25,25,24,,,,,down,0,0.593091011,2016_Sep_30_1202,60.00452076,heterogeneity160929b,1,204204,,positive,persistent,,,,,0,26,26,13,,,,,up,0,0.756456137,2016_Sep_30_1202,60.00452076,heterogeneity160929b,1,204204,,negative,cynical,,,,,0,27,27,37,,,,,up,0,0.909418821,2016_Sep_30_1202,60.00452076,heterogeneity160929b,1,204204,,negative,anxious,,,,,0,28,28,35,,,,,down,0,0.676243067,2016_Sep_30_1202,60.00452076,heterogeneity160929b,1,204204,,negative,stubborn,,,,,0,29,29,39,,,,,up,0,0.775966883,2016_Sep_30_1202,60.00452076,heterogeneity160929b,1,204204,,positive,enthusiastic,,,,,0,30,30,16,,,,,down,0,0.891038895,2016_Sep_30_1202,60.00452076,heterogeneity160929b,1,204204,,positive,wise,,,,,0,31,31,19,,,,,up,0,0.561015844,2016_Sep_30_1202,60.00452076,heterogeneity160929b,1,204204,,negative,irritable,,,,,0,32,32,27,,,,,down,0,0.791898966,2016_Sep_30_1202,60.00452076,heterogeneity160929b,1,204204,,positive,disciplined,,,,,0,33,33,1,,,,,up,0,0.624965906,2016_Sep_30_1202,60.00452076,heterogeneity160929b,1,204204,,positive,tidy,,,,,0,34,34,4,,,,,up,0,0.727607012,2016_Sep_30_1202,60.00452076,heterogeneity160929b,1,204204,,negative,worrying,,,,,0,35,35,32,,,,,up,0,0.909124851,2016_Sep_30_1202,60.00452076,heterogeneity160929b,1,204204,,positive,talented,,,,,0,36,36,0,,,,,up,0,0.642563105,2016_Sep_30_1202,60.00452076,heterogeneity160929b,1,204204,,positive,confident,,,,,0,37,37,7,,,,,up,0,1.04205513,2016_Sep_30_1202,60.00452076,heterogeneity160929b,1,204204,,negative,tense,,,,,0,38,38,26,,,,,down,0,0.993720055,2016_Sep_30_1202,60.00452076,heterogeneity160929b,1,204204,,positive,idealistic,,,,,0,39,39,3,,,,,up,0,0.674777985,2016_Sep_30_1202,60.00452076,heterogeneity160929b,1,204205,,positive,courageous,,,,,0,0,0,15,,,,,up,0,0.591831923,2016_Sep_30_1215,59.98444007,heterogeneity160929b,1,205205,,positive,persistent,,,,,0,1,1,13,,,,,up,0,0.991534948,2016_Sep_30_1215,59.98444007,heterogeneity160929b,1,205205,,negative,fearful,,,,,0,2,2,24,,,,,down,0,1.275992155,2016_Sep_30_1215,59.98444007,heterogeneity160929b,1,205205,,positive,idealistic,,,,,0,3,3,3,,,,,up,0,0.808661938,2016_Sep_30_1215,59.98444007,heterogeneity160929b,1,205205,,negative,messy,,,,,0,4,4,36,,,,,up,0,0.910298824,2016_Sep_30_1215,59.98444007,heterogeneity160929b,1,205205,,positive,tidy,,,,,0,5,5,4,,,,,down,0,0.694205999,2016_Sep_30_1215,59.98444007,heterogeneity160929b,1,205205,,positive,thrifty,,,,,0,6,6,2,,,,,down,0,1.059420109,2016_Sep_30_1215,59.98444007,heterogeneity160929b,1,205205,,positive,wise,,,,,0,7,7,19,,,,,up,0,0.693953991,2016_Sep_30_1215,59.98444007,heterogeneity160929b,1,205205,,positive,enthusiastic,,,,,0,8,8,16,,,,,up,0,0.624419928,2016_Sep_30_1215,59.98444007,heterogeneity160929b,1,205205,,positive,proud,,,,,0,9,9,11,,,,,up,0,0.493678093,2016_Sep_30_1215,59.98444007,heterogeneity160929b,1,205205,,negative,inhibited,,,,,0,10,10,25,,,,,down,0,1.02561903,2016_Sep_30_1215,59.98444007,heterogeneity160929b,1,205205,,positive,trusting,,,,,0,11,11,8,,,,,up,0,0.591995955,2016_Sep_30_1215,59.98444007,heterogeneity160929b,1,205205,,negative,tense,,,,,0,12,12,26,,,,,down,0,0.860255003,2016_Sep_30_1215,59.98444007,heterogeneity160929b,1,205205,,positive,brilliant,,,,,0,13,13,12,,,,,up,0,0.558450937,2016_Sep_30_1215,59.98444007,heterogeneity160929b,1,205205,,positive,artistic,,,,,0,14,14,9,,,,,up,0,0.659235001,2016_Sep_30_1215,59.98444007,heterogeneity160929b,1,205205,,positive,inventive,,,,,0,15,15,18,,,,,up,0,0.608848095,2016_Sep_30_1215,59.98444007,heterogeneity160929b,1,205205,,negative,timid,,,,,0,16,16,28,,,,,down,0,0.72619009,2016_Sep_30_1215,59.98444007,heterogeneity160929b,1,205205,,positive,ambitious,,,,,0,17,17,10,,,,,up,0,0.658960104,2016_Sep_30_1215,59.98444007,heterogeneity160929b,1,205205,,negative,anxious,,,,,0,18,18,35,,,,,up,0,0.959417105,2016_Sep_30_1215,59.98444007,heterogeneity160929b,1,205205,,negative,insecure,,,,,0,19,19,22,,,,,down,0,0.975620031,2016_Sep_30_1215,59.98444007,heterogeneity160929b,1,205205,,positive,talented,,,,,0,20,20,0,,,,,up,0,0.608618021,2016_Sep_30_1215,59.98444007,heterogeneity160929b,1,205205,,negative,boring,,,,,0,21,21,20,,,,,down,0,0.609812975,2016_Sep_30_1215,59.98444007,heterogeneity160929b,1,205205,,negative,stubborn,,,,,0,22,22,39,,,,,up,0,0.825910091,2016_Sep_30_1215,59.98444007,heterogeneity160929b,1,205205,,positive,orderly,,,,,0,23,23,14,,,,,down,0,1.192785978,2016_Sep_30_1215,59.98444007,heterogeneity160929b,1,205205,,negative,childish,,,,,0,24,24,29,,,,,down,0,1.159035206,2016_Sep_30_1215,59.98444007,heterogeneity160929b,1,205205,,positive,confident,,,,,0,25,25,7,,,,,up,0,0.673360825,2016_Sep_30_1215,59.98444007,heterogeneity160929b,1,205205,,negative,gullible,,,,,0,26,26,34,,,,,down,0,0.742149115,2016_Sep_30_1215,59.98444007,heterogeneity160929b,1,205205,,negative,forgetful,,,,,0,27,27,31,,,,,down,0,0.959029198,2016_Sep_30_1215,59.98444007,heterogeneity160929b,1,205205,,negative,withdrawn,,,,,0,28,28,38,,,,,down,0,0.825516939,2016_Sep_30_1215,59.98444007,heterogeneity160929b,1,205205,,positive,outgoing,,,,,0,29,29,17,,,,,up,0,0.625952959,2016_Sep_30_1215,59.98444007,heterogeneity160929b,1,205205,,negative,impulsive,,,,,0,30,30,21,,,,,up,0,0.608275175,2016_Sep_30_1215,59.98444007,heterogeneity160929b,1,205205,,negative,moody,,,,,0,31,31,30,,,,,down,0,0.677009106,2016_Sep_30_1215,59.98444007,heterogeneity160929b,1,205205,,negative,irritable,,,,,0,32,32,27,,,,,down,0,0.675136089,2016_Sep_30_1215,59.98444007,heterogeneity160929b,1,205205,,negative,worrying,,,,,0,33,33,32,,,,,down,0,0.742599964,2016_Sep_30_1215,59.98444007,heterogeneity160929b,1,205205,,positive,tender,,,,,0,34,34,6,,,,,down,0,0.843481064,2016_Sep_30_1215,59.98444007,heterogeneity160929b,1,205205,,negative,clumsy,,,,,0,35,35,23,,,,,down,0,1.109861851,2016_Sep_30_1215,59.98444007,heterogeneity160929b,1,205205,,negative,antisocial,,,,,0,36,36,33,,,,,down,0,0.875087023,2016_Sep_30_1215,59.98444007,heterogeneity160929b,1,205205,,negative,cynical,,,,,0,37,37,37,,,,,up,0,1.476138115,2016_Sep_30_1215,59.98444007,heterogeneity160929b,1,205205,,positive,neat,,,,,0,38,38,5,,,,,down,0,0.743746042,2016_Sep_30_1215,59.98444007,heterogeneity160929b,1,205205,,positive,disciplined,,,,,0,39,39,1,,,,,down,0,0.858274937,2016_Sep_30_1215,59.98444007,heterogeneity160929b,1,205206,,positive,inventive,,,,,0,0,0,18,,,,,up,0,1.692242146,2016_Sep_30_1233,60.01070213,heterogeneity160929b,1,206206,,positive,persistent,,,,,0,1,1,13,,,,,up,0,1.107909918,2016_Sep_30_1233,60.01070213,heterogeneity160929b,1,206206,,positive,wise,,,,,0,2,2,19,,,,,up,0,0.777783155,2016_Sep_30_1233,60.01070213,heterogeneity160929b,1,206206,,positive,proud,,,,,0,3,3,11,,,,,up,0,0.543775082,2016_Sep_30_1233,60.01070213,heterogeneity160929b,1,206206,,negative,timid,,,,,0,4,4,28,,,,,up,0,1.010191917,2016_Sep_30_1233,60.01070213,heterogeneity160929b,1,206206,,positive,confident,,,,,0,5,5,7,,,,,up,0,0.758888006,2016_Sep_30_1233,60.01070213,heterogeneity160929b,1,206206,,negative,antisocial,,,,,0,6,6,33,,,,,down,0,1.775093079,2016_Sep_30_1233,60.01070213,heterogeneity160929b,1,206206,,negative,tense,,,,,0,7,7,26,,,,,up,0,1.226480961,2016_Sep_30_1233,60.01070213,heterogeneity160929b,1,206206,,positive,idealistic,,,,,0,8,8,3,,,,,up,0,0.991919041,2016_Sep_30_1233,60.01070213,heterogeneity160929b,1,206206,,positive,orderly,,,,,0,9,9,14,,,,,up,0,1.992902994,2016_Sep_30_1233,60.01070213,heterogeneity160929b,1,206206,,positive,disciplined,,,,,0,10,10,1,,,,,up,0,0.958047867,2016_Sep_30_1233,60.01070213,heterogeneity160929b,1,206206,,negative,moody,,,,,0,11,11,30,,,,,down,0,2.393347025,2016_Sep_30_1233,60.01070213,heterogeneity160929b,1,206206,,negative,worrying,,,,,0,12,12,32,,,,,up,0,2.075634956,2016_Sep_30_1233,60.01070213,heterogeneity160929b,1,206206,,positive,thrifty,,,,,0,13,13,2,,,,,None,0,,2016_Sep_30_1233,60.01070213,heterogeneity160929b,1,206206,,negative,clumsy,,,,,0,14,14,23,,,,,down,0,1.426523209,2016_Sep_30_1233,60.01070213,heterogeneity160929b,1,206206,,positive,brilliant,,,,,0,15,15,12,,,,,down,0,1.325443029,2016_Sep_30_1233,60.01070213,heterogeneity160929b,1,206206,,negative,irritable,,,,,0,16,16,27,,,,,down,0,1.342103958,2016_Sep_30_1233,60.01070213,heterogeneity160929b,1,206206,,positive,tidy,,,,,0,17,17,4,,,,,up,0,1.260746002,2016_Sep_30_1233,60.01070213,heterogeneity160929b,1,206206,,positive,enthusiastic,,,,,0,18,18,16,,,,,up,0,2.057298899,2016_Sep_30_1233,60.01070213,heterogeneity160929b,1,206206,,negative,messy,,,,,0,19,19,36,,,,,down,0,1.209676027,2016_Sep_30_1233,60.01070213,heterogeneity160929b,1,206206,,positive,ambitious,,,,,0,20,20,10,,,,,up,0,0.958747864,2016_Sep_30_1233,60.01070213,heterogeneity160929b,1,206206,,negative,stubborn,,,,,0,21,21,39,,,,,up,0,1.02580905,2016_Sep_30_1233,60.01070213,heterogeneity160929b,1,206206,,positive,artistic,,,,,0,22,22,9,,,,,up,0,1.325829983,2016_Sep_30_1233,60.01070213,heterogeneity160929b,1,206206,,negative,gullible,,,,,0,23,23,34,,,,,down,0,1.875941992,2016_Sep_30_1233,60.01070213,heterogeneity160929b,1,206206,,negative,cynical,,,,,0,24,24,37,,,,,up,0,1.142789125,2016_Sep_30_1233,60.01070213,heterogeneity160929b,1,206206,,negative,fearful,,,,,0,25,25,24,,,,,up,0,0.957433939,2016_Sep_30_1233,60.01070213,heterogeneity160929b,1,206206,,negative,impulsive,,,,,0,26,26,21,,,,,up,0,0.808756113,2016_Sep_30_1233,60.01070213,heterogeneity160929b,1,206206,,negative,withdrawn,,,,,0,27,27,38,,,,,up,0,1.208849907,2016_Sep_30_1233,60.01070213,heterogeneity160929b,1,206206,,positive,neat,,,,,0,28,28,5,,,,,up,0,0.644442081,2016_Sep_30_1233,60.01070213,heterogeneity160929b,1,206206,,negative,childish,,,,,0,29,29,29,,,,,up,0,1.575773001,2016_Sep_30_1233,60.01070213,heterogeneity160929b,1,206206,,negative,anxious,,,,,0,30,30,35,,,,,up,0,0.992838144,2016_Sep_30_1233,60.01070213,heterogeneity160929b,1,206206,,positive,courageous,,,,,0,31,31,15,,,,,up,0,1.99169302,2016_Sep_30_1233,60.01070213,heterogeneity160929b,1,206206,,negative,insecure,,,,,0,32,32,22,,,,,up,0,1.075459003,2016_Sep_30_1233,60.01070213,heterogeneity160929b,1,206206,,positive,tender,,,,,0,33,33,6,,,,,down,0,2.359774828,2016_Sep_30_1233,60.01070213,heterogeneity160929b,1,206206,,negative,inhibited,,,,,0,34,34,25,,,,,None,0,,2016_Sep_30_1233,60.01070213,heterogeneity160929b,1,206206,,positive,talented,,,,,0,35,35,0,,,,,down,0,2.109028101,2016_Sep_30_1233,60.01070213,heterogeneity160929b,1,206206,,positive,trusting,,,,,0,36,36,8,,,,,up,0,0.992624998,2016_Sep_30_1233,60.01070213,heterogeneity160929b,1,206206,,negative,forgetful,,,,,0,37,37,31,,,,,down,0,1.975251913,2016_Sep_30_1233,60.01070213,heterogeneity160929b,1,206206,,negative,boring,,,,,0,38,38,20,,,,,down,0,1.376128912,2016_Sep_30_1233,60.01070213,heterogeneity160929b,1,206206,,positive,outgoing,,,,,0,39,39,17,,,,,up,0,1.775929213,2016_Sep_30_1233,60.01070213,heterogeneity160929b,1,206207,,negative,tense,,,,,0,0,0,26,,,,,up,0,1.343882084,2016_Sep_30_1245,60.0251303,heterogeneity160929b,1,207207,,positive,orderly,,,,,0,1,1,14,,,,,up,0,0.74296999,2016_Sep_30_1245,60.0251303,heterogeneity160929b,1,207207,,negative,irritable,,,,,0,2,2,27,,,,,down,0,1.291796923,2016_Sep_30_1245,60.0251303,heterogeneity160929b,1,207207,,negative,cynical,,,,,0,3,3,37,,,,,up,0,0.892853022,2016_Sep_30_1245,60.0251303,heterogeneity160929b,1,207207,,positive,disciplined,,,,,0,4,4,1,,,,,up,0,1.308094025,2016_Sep_30_1245,60.0251303,heterogeneity160929b,1,207207,,positive,thrifty,,,,,0,5,5,2,,,,,down,0,0.909583092,2016_Sep_30_1245,60.0251303,heterogeneity160929b,1,207207,,negative,gullible,,,,,0,6,6,34,,,,,down,0,0.959226847,2016_Sep_30_1245,60.0251303,heterogeneity160929b,1,207207,,negative,messy,,,,,0,7,7,36,,,,,down,0,1.493531942,2016_Sep_30_1245,60.0251303,heterogeneity160929b,1,207207,,negative,fearful,,,,,0,8,8,24,,,,,down,0,1.125853062,2016_Sep_30_1245,60.0251303,heterogeneity160929b,1,207207,,positive,outgoing,,,,,0,9,9,17,,,,,down,0,0.825963974,2016_Sep_30_1245,60.0251303,heterogeneity160929b,1,207207,,positive,trusting,,,,,0,10,10,8,,,,,up,0,1.425610065,2016_Sep_30_1245,60.0251303,heterogeneity160929b,1,207207,,negative,anxious,,,,,0,11,11,35,,,,,down,0,1.87605691,2016_Sep_30_1245,60.0251303,heterogeneity160929b,1,207207,,negative,worrying,,,,,0,12,12,32,,,,,down,0,1.225747108,2016_Sep_30_1245,60.0251303,heterogeneity160929b,1,207207,,negative,inhibited,,,,,0,13,13,25,,,,,up,0,1.025372982,2016_Sep_30_1245,60.0251303,heterogeneity160929b,1,207207,,positive,tidy,,,,,0,14,14,4,,,,,down,0,1.027295113,2016_Sep_30_1245,60.0251303,heterogeneity160929b,1,207207,,negative,childish,,,,,0,15,15,29,,,,,up,0,1.009133101,2016_Sep_30_1245,60.0251303,heterogeneity160929b,1,207207,,positive,tender,,,,,0,16,16,6,,,,,up,0,1.209666967,2016_Sep_30_1245,60.0251303,heterogeneity160929b,1,207207,,negative,stubborn,,,,,0,17,17,39,,,,,up,0,1.375742912,2016_Sep_30_1245,60.0251303,heterogeneity160929b,1,207207,,negative,moody,,,,,0,18,18,30,,,,,down,0,0.759648085,2016_Sep_30_1245,60.0251303,heterogeneity160929b,1,207207,,positive,inventive,,,,,0,19,19,18,,,,,up,0,1.558882952,2016_Sep_30_1245,60.0251303,heterogeneity160929b,1,207207,,negative,forgetful,,,,,0,20,20,31,,,,,up,0,0.975054979,2016_Sep_30_1245,60.0251303,heterogeneity160929b,1,207207,,positive,neat,,,,,0,21,21,5,,,,,up,0,1.094177008,2016_Sep_30_1245,60.0251303,heterogeneity160929b,1,207207,,positive,proud,,,,,0,22,22,11,,,,,up,0,1.393516064,2016_Sep_30_1245,60.0251303,heterogeneity160929b,1,207207,,positive,brilliant,,,,,0,23,23,12,,,,,down,0,1.808756113,2016_Sep_30_1245,60.0251303,heterogeneity160929b,1,207207,,negative,impulsive,,,,,0,24,24,21,,,,,None,0,,2016_Sep_30_1245,60.0251303,heterogeneity160929b,1,207207,,negative,boring,,,,,0,25,25,20,,,,,up,0,1.42624712,2016_Sep_30_1245,60.0251303,heterogeneity160929b,1,207207,,negative,antisocial,,,,,0,26,26,33,,,,,up,0,0.806234837,2016_Sep_30_1245,60.0251303,heterogeneity160929b,1,207207,,negative,timid,,,,,0,27,27,28,,,,,up,0,0.827190876,2016_Sep_30_1245,60.0251303,heterogeneity160929b,1,207207,,positive,confident,,,,,0,28,28,7,,,,,down,0,1.108925104,2016_Sep_30_1245,60.0251303,heterogeneity160929b,1,207207,,positive,talented,,,,,0,29,29,0,,,,,down,0,1.342428923,2016_Sep_30_1245,60.0251303,heterogeneity160929b,1,207207,,positive,wise,,,,,0,30,30,19,,,,,up,0,1.32770896,2016_Sep_30_1245,60.0251303,heterogeneity160929b,1,207207,,positive,idealistic,,,,,0,31,31,3,,,,,down,0,1.491785049,2016_Sep_30_1245,60.0251303,heterogeneity160929b,1,207207,,positive,artistic,,,,,0,32,32,9,,,,,down,0,0.709349871,2016_Sep_30_1245,60.0251303,heterogeneity160929b,1,207207,,positive,courageous,,,,,0,33,33,15,,,,,down,0,1.724634886,2016_Sep_30_1245,60.0251303,heterogeneity160929b,1,207207,,positive,ambitious,,,,,0,34,34,10,,,,,up,0,1.042338848,2016_Sep_30_1245,60.0251303,heterogeneity160929b,1,207207,,positive,enthusiastic,,,,,0,35,35,16,,,,,down,0,0.874420166,2016_Sep_30_1245,60.0251303,heterogeneity160929b,1,207207,,positive,persistent,,,,,0,36,36,13,,,,,down,0,1.441871881,2016_Sep_30_1245,60.0251303,heterogeneity160929b,1,207207,,negative,insecure,,,,,0,37,37,22,,,,,up,0,1.026082993,2016_Sep_30_1245,60.0251303,heterogeneity160929b,1,207207,,negative,clumsy,,,,,0,38,38,23,,,,,up,0,1.393231869,2016_Sep_30_1245,60.0251303,heterogeneity160929b,1,207207,,negative,withdrawn,,,,,0,39,39,38,,,,,up,0,0.775135994,2016_Sep_30_1245,60.0251303,heterogeneity160929b,1,207208,,positive,ambitious,,,,,0,0,0,10,,,,,up,0,0.692425966,2016_Sep_30_1301,60.0114749,heterogeneity160929b,1,208208,,negative,worrying,,,,,0,1,1,32,,,,,down,0,0.909203053,2016_Sep_30_1301,60.0114749,heterogeneity160929b,1,208208,,positive,confident,,,,,0,2,2,7,,,,,up,0,0.675431013,2016_Sep_30_1301,60.0114749,heterogeneity160929b,1,208208,,positive,orderly,,,,,0,3,3,14,,,,,up,0,0.726346016,2016_Sep_30_1301,60.0114749,heterogeneity160929b,1,208208,,negative,anxious,,,,,0,4,4,35,,,,,down,0,1.009576797,2016_Sep_30_1301,60.0114749,heterogeneity160929b,1,208208,,positive,courageous,,,,,0,5,5,15,,,,,up,0,0.858274221,2016_Sep_30_1301,60.0114749,heterogeneity160929b,1,208208,,positive,wise,,,,,0,6,6,19,,,,,up,0,0.57754302,2016_Sep_30_1301,60.0114749,heterogeneity160929b,1,208208,,positive,neat,,,,,0,7,7,5,,,,,down,0,1.39399004,2016_Sep_30_1301,60.0114749,heterogeneity160929b,1,208208,,positive,brilliant,,,,,0,8,8,12,,,,,up,0,0.675653934,2016_Sep_30_1301,60.0114749,heterogeneity160929b,1,208208,,positive,trusting,,,,,0,9,9,8,,,,,up,0,0.609398842,2016_Sep_30_1301,60.0114749,heterogeneity160929b,1,208208,,positive,artistic,,,,,0,10,10,9,,,,,down,0,1.042484999,2016_Sep_30_1301,60.0114749,heterogeneity160929b,1,208208,,negative,inhibited,,,,,0,11,11,25,,,,,up,0,1.508887053,2016_Sep_30_1301,60.0114749,heterogeneity160929b,1,208208,,negative,boring,,,,,0,12,12,20,,,,,down,0,1.393176079,2016_Sep_30_1301,60.0114749,heterogeneity160929b,1,208208,,positive,outgoing,,,,,0,13,13,17,,,,,up,0,0.808970928,2016_Sep_30_1301,60.0114749,heterogeneity160929b,1,208208,,negative,cynical,,,,,0,14,14,37,,,,,up,0,1.042997122,2016_Sep_30_1301,60.0114749,heterogeneity160929b,1,208208,,negative,insecure,,,,,0,15,15,22,,,,,up,0,1.808999062,2016_Sep_30_1301,60.0114749,heterogeneity160929b,1,208208,,negative,moody,,,,,0,16,16,30,,,,,down,0,1.04351306,2016_Sep_30_1301,60.0114749,heterogeneity160929b,1,208208,,negative,childish,,,,,0,17,17,29,,,,,up,0,1.559073925,2016_Sep_30_1301,60.0114749,heterogeneity160929b,1,208208,,negative,irritable,,,,,0,18,18,27,,,,,down,0,1.042222977,2016_Sep_30_1301,60.0114749,heterogeneity160929b,1,208208,,negative,messy,,,,,0,19,19,36,,,,,down,0,2.359529018,2016_Sep_30_1301,60.0114749,heterogeneity160929b,1,208208,,positive,disciplined,,,,,0,20,20,1,,,,,up,0,0.691537142,2016_Sep_30_1301,60.0114749,heterogeneity160929b,1,208208,,negative,clumsy,,,,,0,21,21,23,,,,,up,0,1.343027115,2016_Sep_30_1301,60.0114749,heterogeneity160929b,1,208208,,positive,proud,,,,,0,22,22,11,,,,,up,0,0.71031785,2016_Sep_30_1301,60.0114749,heterogeneity160929b,1,208208,,positive,idealistic,,,,,0,23,23,3,,,,,down,0,1.325147867,2016_Sep_30_1301,60.0114749,heterogeneity160929b,1,208208,,negative,forgetful,,,,,0,24,24,31,,,,,down,0,1.692265034,2016_Sep_30_1301,60.0114749,heterogeneity160929b,1,208208,,negative,withdrawn,,,,,0,25,25,38,,,,,up,0,1.473322153,2016_Sep_30_1301,60.0114749,heterogeneity160929b,1,208208,,negative,stubborn,,,,,0,26,26,39,,,,,up,0,1.342444897,2016_Sep_30_1301,60.0114749,heterogeneity160929b,1,208208,,positive,tidy,,,,,0,27,27,4,,,,,down,0,1.177889824,2016_Sep_30_1301,60.0114749,heterogeneity160929b,1,208208,,positive,talented,,,,,0,28,28,0,,,,,down,0,1.425717831,2016_Sep_30_1301,60.0114749,heterogeneity160929b,1,208208,,negative,gullible,,,,,0,29,29,34,,,,,down,0,1.609220028,2016_Sep_30_1301,60.0114749,heterogeneity160929b,1,208208,,negative,timid,,,,,0,30,30,28,,,,,down,0,1.29352212,2016_Sep_30_1301,60.0114749,heterogeneity160929b,1,208208,,negative,tense,,,,,0,31,31,26,,,,,down,0,1.576267958,2016_Sep_30_1301,60.0114749,heterogeneity160929b,1,208208,,positive,thrifty,,,,,0,32,32,2,,,,,up,0,1.042336941,2016_Sep_30_1301,60.0114749,heterogeneity160929b,1,208208,,negative,antisocial,,,,,0,33,33,33,,,,,down,0,1.425136805,2016_Sep_30_1301,60.0114749,heterogeneity160929b,1,208208,,negative,impulsive,,,,,0,34,34,21,,,,,down,0,1.525610924,2016_Sep_30_1301,60.0114749,heterogeneity160929b,1,208208,,positive,inventive,,,,,0,35,35,18,,,,,up,0,1.725358963,2016_Sep_30_1301,60.0114749,heterogeneity160929b,1,208208,,positive,persistent,,,,,0,36,36,13,,,,,up,0,0.825052023,2016_Sep_30_1301,60.0114749,heterogeneity160929b,1,208208,,negative,fearful,,,,,0,37,37,24,,,,,down,0,0.776310921,2016_Sep_30_1301,60.0114749,heterogeneity160929b,1,208208,,positive,tender,,,,,0,38,38,6,,,,,down,0,1.109466076,2016_Sep_30_1301,60.0114749,heterogeneity160929b,1,208208,,positive,enthusiastic,,,,,0,39,39,16,,,,,up,0,1.174496889,2016_Sep_30_1301,60.0114749,heterogeneity160929b,1,208209,,positive,idealistic,,,,,0,0,0,3,,,,,up,0,1.974887133,2016_Sep_30_1311,59.99876979,heterogeneity160929b,1,209209,,positive,tender,,,,,0,1,1,6,,,,,up,0,1.526073933,2016_Sep_30_1311,59.99876979,heterogeneity160929b,1,209209,,negative,gullible,,,,,0,2,2,34,,,,,down,0,1.009165049,2016_Sep_30_1311,59.99876979,heterogeneity160929b,1,209209,,positive,tidy,,,,,0,3,3,4,,,,,up,0,0.860822201,2016_Sep_30_1311,59.99876979,heterogeneity160929b,1,209209,,negative,clumsy,,,,,0,4,4,23,,,,,down,0,0.793314934,2016_Sep_30_1311,59.99876979,heterogeneity160929b,1,209209,,positive,wise,,,,,0,5,5,19,,,,,down,0,0.911088228,2016_Sep_30_1311,59.99876979,heterogeneity160929b,1,209209,,negative,messy,,,,,0,6,6,36,,,,,down,0,0.776873827,2016_Sep_30_1311,59.99876979,heterogeneity160929b,1,209209,,negative,moody,,,,,0,7,7,30,,,,,down,0,0.776567221,2016_Sep_30_1311,59.99876979,heterogeneity160929b,1,209209,,positive,courageous,,,,,0,8,8,15,,,,,up,0,1.508433104,2016_Sep_30_1311,59.99876979,heterogeneity160929b,1,209209,,positive,ambitious,,,,,0,9,9,10,,,,,down,0,1.258821011,2016_Sep_30_1311,59.99876979,heterogeneity160929b,1,209209,,negative,forgetful,,,,,0,10,10,31,,,,,down,0,0.792057037,2016_Sep_30_1311,59.99876979,heterogeneity160929b,1,209209,,negative,insecure,,,,,0,11,11,22,,,,,up,0,1.342412949,2016_Sep_30_1311,59.99876979,heterogeneity160929b,1,209209,,positive,outgoing,,,,,0,12,12,17,,,,,down,0,1.109182835,2016_Sep_30_1311,59.99876979,heterogeneity160929b,1,209209,,negative,impulsive,,,,,0,13,13,21,,,,,down,0,0.791896105,2016_Sep_30_1311,59.99876979,heterogeneity160929b,1,209209,,negative,boring,,,,,0,14,14,20,,,,,up,0,1.526469946,2016_Sep_30_1311,59.99876979,heterogeneity160929b,1,209209,,positive,neat,,,,,0,15,15,5,,,,,up,0,0.744368076,2016_Sep_30_1311,59.99876979,heterogeneity160929b,1,209209,,negative,cynical,,,,,0,16,16,37,,,,,up,0,1.326133013,2016_Sep_30_1311,59.99876979,heterogeneity160929b,1,209209,,negative,tense,,,,,0,17,17,26,,,,,down,0,1.676575899,2016_Sep_30_1311,59.99876979,heterogeneity160929b,1,209209,,negative,stubborn,,,,,0,18,18,39,,,,,down,0,1.292582989,2016_Sep_30_1311,59.99876979,heterogeneity160929b,1,209209,,positive,enthusiastic,,,,,0,19,19,16,,,,,down,0,1.207241058,2016_Sep_30_1311,59.99876979,heterogeneity160929b,1,209209,,positive,confident,,,,,0,20,20,7,,,,,down,0,1.775550127,2016_Sep_30_1311,59.99876979,heterogeneity160929b,1,209209,,positive,inventive,,,,,0,21,21,18,,,,,down,0,0.842138052,2016_Sep_30_1311,59.99876979,heterogeneity160929b,1,209209,,negative,anxious,,,,,0,22,22,35,,,,,up,0,1.709336042,2016_Sep_30_1311,59.99876979,heterogeneity160929b,1,209209,,positive,proud,,,,,0,23,23,11,,,,,down,0,1.560023069,2016_Sep_30_1311,59.99876979,heterogeneity160929b,1,209209,,negative,childish,,,,,0,24,24,29,,,,,down,0,0.909039974,2016_Sep_30_1311,59.99876979,heterogeneity160929b,1,209209,,negative,timid,,,,,0,25,25,28,,,,,down,0,1.991183043,2016_Sep_30_1311,59.99876979,heterogeneity160929b,1,209209,,positive,brilliant,,,,,0,26,26,12,,,,,down,0,0.942145109,2016_Sep_30_1311,59.99876979,heterogeneity160929b,1,209209,,positive,disciplined,,,,,0,27,27,1,,,,,up,0,1.191556931,2016_Sep_30_1311,59.99876979,heterogeneity160929b,1,209209,,positive,artistic,,,,,0,28,28,9,,,,,down,0,0.742496014,2016_Sep_30_1311,59.99876979,heterogeneity160929b,1,209209,,negative,worrying,,,,,0,29,29,32,,,,,None,0,,2016_Sep_30_1311,59.99876979,heterogeneity160929b,1,209209,,negative,irritable,,,,,0,30,30,27,,,,,down,0,0.80882597,2016_Sep_30_1311,59.99876979,heterogeneity160929b,1,209209,,negative,fearful,,,,,0,31,31,24,,,,,down,0,0.809678078,2016_Sep_30_1311,59.99876979,heterogeneity160929b,1,209209,,negative,antisocial,,,,,0,32,32,33,,,,,down,0,1.041419983,2016_Sep_30_1311,59.99876979,heterogeneity160929b,1,209209,,positive,trusting,,,,,0,33,33,8,,,,,down,0,1.609150887,2016_Sep_30_1311,59.99876979,heterogeneity160929b,1,209209,,positive,orderly,,,,,0,34,34,14,,,,,up,0,0.842427969,2016_Sep_30_1311,59.99876979,heterogeneity160929b,1,209209,,positive,talented,,,,,0,35,35,0,,,,,down,0,0.792708874,2016_Sep_30_1311,59.99876979,heterogeneity160929b,1,209209,,negative,withdrawn,,,,,0,36,36,38,,,,,up,0,1.408808947,2016_Sep_30_1311,59.99876979,heterogeneity160929b,1,209209,,positive,persistent,,,,,0,37,37,13,,,,,up,0,0.958498001,2016_Sep_30_1311,59.99876979,heterogeneity160929b,1,209209,,positive,thrifty,,,,,0,38,38,2,,,,,up,0,1.42575407,2016_Sep_30_1311,59.99876979,heterogeneity160929b,1,209209,,negative,inhibited,,,,,0,39,39,25,,,,,up,0,1.892108917,2016_Sep_30_1311,59.99876979,heterogeneity160929b,1,209210,,positive,enthusiastic,,,,,0,0,0,16,,,,,up,0,0.574848175,2016_Sep_30_1322,60.01173249,heterogeneity160929b,1,210210,,negative,moody,,,,,0,1,1,30,,,,,up,0,0.743468046,2016_Sep_30_1322,60.01173249,heterogeneity160929b,1,210210,,positive,inventive,,,,,0,2,2,18,,,,,up,0,0.724698067,2016_Sep_30_1322,60.01173249,heterogeneity160929b,1,210210,,positive,tender,,,,,0,3,3,6,,,,,up,0,0.493405104,2016_Sep_30_1322,60.01173249,heterogeneity160929b,1,210210,,positive,trusting,,,,,0,4,4,8,,,,,up,0,0.55924511,2016_Sep_30_1322,60.01173249,heterogeneity160929b,1,210210,,negative,forgetful,,,,,0,5,5,31,,,,,up,0,0.642216921,2016_Sep_30_1322,60.01173249,heterogeneity160929b,1,210210,,positive,tidy,,,,,0,6,6,4,,,,,up,0,1.010924816,2016_Sep_30_1322,60.01173249,heterogeneity160929b,1,210210,,positive,persistent,,,,,0,7,7,13,,,,,up,0,0.741193056,2016_Sep_30_1322,60.01173249,heterogeneity160929b,1,210210,,negative,gullible,,,,,0,8,8,34,,,,,up,0,0.959150076,2016_Sep_30_1322,60.01173249,heterogeneity160929b,1,210210,,negative,insecure,,,,,0,9,9,22,,,,,up,0,0.642423153,2016_Sep_30_1322,60.01173249,heterogeneity160929b,1,210210,,negative,inhibited,,,,,0,10,10,25,,,,,up,0,0.892216921,2016_Sep_30_1322,60.01173249,heterogeneity160929b,1,210210,,negative,withdrawn,,,,,0,11,11,38,,,,,down,0,0.875597954,2016_Sep_30_1322,60.01173249,heterogeneity160929b,1,210210,,positive,neat,,,,,0,12,12,5,,,,,up,0,0.894318819,2016_Sep_30_1322,60.01173249,heterogeneity160929b,1,210210,,positive,artistic,,,,,0,13,13,9,,,,,up,0,0.992321014,2016_Sep_30_1322,60.01173249,heterogeneity160929b,1,210210,,negative,cynical,,,,,0,14,14,37,,,,,up,0,0.776267052,2016_Sep_30_1322,60.01173249,heterogeneity160929b,1,210210,,negative,messy,,,,,0,15,15,36,,,,,down,0,0.826956987,2016_Sep_30_1322,60.01173249,heterogeneity160929b,1,210210,,positive,thrifty,,,,,0,16,16,2,,,,,up,0,0.94282794,2016_Sep_30_1322,60.01173249,heterogeneity160929b,1,210210,,positive,confident,,,,,0,17,17,7,,,,,up,0,0.675505877,2016_Sep_30_1322,60.01173249,heterogeneity160929b,1,210210,,negative,irritable,,,,,0,18,18,27,,,,,up,0,0.67541194,2016_Sep_30_1322,60.01173249,heterogeneity160929b,1,210210,,positive,ambitious,,,,,0,19,19,10,,,,,up,0,0.675139904,2016_Sep_30_1322,60.01173249,heterogeneity160929b,1,210210,,negative,antisocial,,,,,0,20,20,33,,,,,down,0,0.825103045,2016_Sep_30_1322,60.01173249,heterogeneity160929b,1,210210,,positive,proud,,,,,0,21,21,11,,,,,up,0,0.593598843,2016_Sep_30_1322,60.01173249,heterogeneity160929b,1,210210,,negative,timid,,,,,0,22,22,28,,,,,down,0,0.743353128,2016_Sep_30_1322,60.01173249,heterogeneity160929b,1,210210,,positive,idealistic,,,,,0,23,23,3,,,,,down,0,0.925100088,2016_Sep_30_1322,60.01173249,heterogeneity160929b,1,210210,,negative,childish,,,,,0,24,24,29,,,,,up,0,1.042363882,2016_Sep_30_1322,60.01173249,heterogeneity160929b,1,210210,,positive,disciplined,,,,,0,25,25,1,,,,,down,0,0.889378071,2016_Sep_30_1322,60.01173249,heterogeneity160929b,1,210210,,positive,courageous,,,,,0,26,26,15,,,,,up,0,0.575269938,2016_Sep_30_1322,60.01173249,heterogeneity160929b,1,210210,,negative,boring,,,,,0,27,27,20,,,,,down,0,0.859935999,2016_Sep_30_1322,60.01173249,heterogeneity160929b,1,210210,,negative,tense,,,,,0,28,28,26,,,,,down,0,1.010284185,2016_Sep_30_1322,60.01173249,heterogeneity160929b,1,210210,,negative,stubborn,,,,,0,29,29,39,,,,,down,0,0.67595005,2016_Sep_30_1322,60.01173249,heterogeneity160929b,1,210210,,negative,clumsy,,,,,0,30,30,23,,,,,down,0,0.743194103,2016_Sep_30_1322,60.01173249,heterogeneity160929b,1,210210,,positive,brilliant,,,,,0,31,31,12,,,,,up,0,0.858911991,2016_Sep_30_1322,60.01173249,heterogeneity160929b,1,210210,,positive,talented,,,,,0,32,32,0,,,,,up,0,0.725353956,2016_Sep_30_1322,60.01173249,heterogeneity160929b,1,210210,,negative,anxious,,,,,0,33,33,35,,,,,down,0,0.892910004,2016_Sep_30_1322,60.01173249,heterogeneity160929b,1,210210,,negative,worrying,,,,,0,34,34,32,,,,,down,0,0.742726088,2016_Sep_30_1322,60.01173249,heterogeneity160929b,1,210210,,positive,wise,,,,,0,35,35,19,,,,,down,0,0.877803087,2016_Sep_30_1322,60.01173249,heterogeneity160929b,1,210210,,negative,fearful,,,,,0,36,36,24,,,,,down,0,0.959407091,2016_Sep_30_1322,60.01173249,heterogeneity160929b,1,210210,,negative,impulsive,,,,,0,37,37,21,,,,,down,0,0.842167139,2016_Sep_30_1322,60.01173249,heterogeneity160929b,1,210210,,positive,outgoing,,,,,0,38,38,17,,,,,up,0,0.608871937,2016_Sep_30_1322,60.01173249,heterogeneity160929b,1,210210,,positive,orderly,,,,,0,39,39,14,,,,,down,0,0.876199007,2016_Sep_30_1322,60.01173249,heterogeneity160929b,1,210212,,positive,confident,,,,,0,0,0,7,,,,,up,0,0.75917697,2016_Sep_30_1359,59.98229549,heterogeneity160929b,1,212212,,negative,irritable,,,,,0,1,1,27,,,,,down,0,1.258344889,2016_Sep_30_1359,59.98229549,heterogeneity160929b,1,212212,,negative,insecure,,,,,0,2,2,22,,,,,down,0,1.109078884,2016_Sep_30_1359,59.98229549,heterogeneity160929b,1,212212,,negative,moody,,,,,0,3,3,30,,,,,up,0,1.660128832,2016_Sep_30_1359,59.98229549,heterogeneity160929b,1,212212,,negative,cynical,,,,,0,4,4,37,,,,,down,0,1.709378958,2016_Sep_30_1359,59.98229549,heterogeneity160929b,1,212212,,negative,timid,,,,,0,5,5,28,,,,,up,0,1.476336002,2016_Sep_30_1359,59.98229549,heterogeneity160929b,1,212212,,positive,neat,,,,,0,6,6,5,,,,,up,0,0.777848959,2016_Sep_30_1359,59.98229549,heterogeneity160929b,1,212212,,positive,tender,,,,,0,7,7,6,,,,,up,0,1.309538126,2016_Sep_30_1359,59.98229549,heterogeneity160929b,1,212212,,negative,impulsive,,,,,0,8,8,21,,,,,down,0,1.692284107,2016_Sep_30_1359,59.98229549,heterogeneity160929b,1,212212,,negative,childish,,,,,0,9,9,29,,,,,up,0,0.925904036,2016_Sep_30_1359,59.98229549,heterogeneity160929b,1,212212,,positive,persistent,,,,,0,10,10,13,,,,,up,0,1.02474308,2016_Sep_30_1359,59.98229549,heterogeneity160929b,1,212212,,positive,tidy,,,,,0,11,11,4,,,,,up,0,0.677700043,2016_Sep_30_1359,59.98229549,heterogeneity160929b,1,212212,,positive,proud,,,,,0,12,12,11,,,,,down,0,1.1101439,2016_Sep_30_1359,59.98229549,heterogeneity160929b,1,212212,,positive,disciplined,,,,,0,13,13,1,,,,,down,0,1.307646036,2016_Sep_30_1359,59.98229549,heterogeneity160929b,1,212212,,positive,artistic,,,,,0,14,14,9,,,,,up,0,0.825507164,2016_Sep_30_1359,59.98229549,heterogeneity160929b,1,212212,,positive,orderly,,,,,0,15,15,14,,,,,down,0,1.376003981,2016_Sep_30_1359,59.98229549,heterogeneity160929b,1,212212,,negative,stubborn,,,,,0,16,16,39,,,,,down,0,1.392504931,2016_Sep_30_1359,59.98229549,heterogeneity160929b,1,212212,,positive,outgoing,,,,,0,17,17,17,,,,,up,0,0.759136915,2016_Sep_30_1359,59.98229549,heterogeneity160929b,1,212212,,positive,trusting,,,,,0,18,18,8,,,,,up,0,0.842518806,2016_Sep_30_1359,59.98229549,heterogeneity160929b,1,212212,,negative,forgetful,,,,,0,19,19,31,,,,,up,0,1.108591795,2016_Sep_30_1359,59.98229549,heterogeneity160929b,1,212212,,positive,inventive,,,,,0,20,20,18,,,,,up,0,1.775488853,2016_Sep_30_1359,59.98229549,heterogeneity160929b,1,212212,,positive,thrifty,,,,,0,21,21,2,,,,,down,0,1.442805052,2016_Sep_30_1359,59.98229549,heterogeneity160929b,1,212212,,positive,ambitious,,,,,0,22,22,10,,,,,up,0,1.324878931,2016_Sep_30_1359,59.98229549,heterogeneity160929b,1,212212,,negative,gullible,,,,,0,23,23,34,,,,,down,0,1.158992052,2016_Sep_30_1359,59.98229549,heterogeneity160929b,1,212212,,negative,messy,,,,,0,24,24,36,,,,,up,0,1.210129023,2016_Sep_30_1359,59.98229549,heterogeneity160929b,1,212212,,negative,worrying,,,,,0,25,25,32,,,,,up,0,1.723716974,2016_Sep_30_1359,59.98229549,heterogeneity160929b,1,212212,,negative,antisocial,,,,,0,26,26,33,,,,,down,0,1.325227022,2016_Sep_30_1359,59.98229549,heterogeneity160929b,1,212212,,negative,withdrawn,,,,,0,27,27,38,,,,,None,0,,2016_Sep_30_1359,59.98229549,heterogeneity160929b,1,212212,,negative,boring,,,,,0,28,28,20,,,,,down,0,0.993062973,2016_Sep_30_1359,59.98229549,heterogeneity160929b,1,212212,,positive,wise,,,,,0,29,29,19,,,,,up,0,0.710990906,2016_Sep_30_1359,59.98229549,heterogeneity160929b,1,212212,,negative,clumsy,,,,,0,30,30,23,,,,,down,0,0.909888983,2016_Sep_30_1359,59.98229549,heterogeneity160929b,1,212212,,positive,talented,,,,,0,31,31,0,,,,,up,0,0.725861073,2016_Sep_30_1359,59.98229549,heterogeneity160929b,1,212212,,negative,tense,,,,,0,32,32,26,,,,,down,0,0.876345158,2016_Sep_30_1359,59.98229549,heterogeneity160929b,1,212212,,positive,courageous,,,,,0,33,33,15,,,,,up,0,1.058744907,2016_Sep_30_1359,59.98229549,heterogeneity160929b,1,212212,,positive,idealistic,,,,,0,34,34,3,,,,,up,0,0.925211906,2016_Sep_30_1359,59.98229549,heterogeneity160929b,1,212212,,negative,fearful,,,,,0,35,35,24,,,,,down,0,0.99297595,2016_Sep_30_1359,59.98229549,heterogeneity160929b,1,212212,,negative,inhibited,,,,,0,36,36,25,,,,,down,0,1.375607014,2016_Sep_30_1359,59.98229549,heterogeneity160929b,1,212212,,negative,anxious,,,,,0,37,37,35,,,,,down,0,0.876132965,2016_Sep_30_1359,59.98229549,heterogeneity160929b,1,212212,,positive,brilliant,,,,,0,38,38,12,,,,,up,0,0.641827106,2016_Sep_30_1359,59.98229549,heterogeneity160929b,1,212212,,positive,enthusiastic,,,,,0,39,39,16,,,,,up,0,0.641291142,2016_Sep_30_1359,59.98229549,heterogeneity160929b,1,212302,,negative,timid,,,,,0,0,0,28,,,,,up,0,1.06052494,2016_Oct_03_1115,59.99010249,heterogeneity160929b,1,214302,,positive,persistent,,,,,0,1,1,13,,,,,up,0,0.758313894,2016_Oct_03_1115,59.99010249,heterogeneity160929b,1,214302,,positive,proud,,,,,0,2,2,11,,,,,down,0,2.792920113,2016_Oct_03_1115,59.99010249,heterogeneity160929b,1,214302,,negative,antisocial,,,,,0,3,3,33,,,,,up,0,1.158375978,2016_Oct_03_1115,59.99010249,heterogeneity160929b,1,214302,,negative,boring,,,,,0,4,4,20,,,,,down,0,1.243200064,2016_Oct_03_1115,59.99010249,heterogeneity160929b,1,214302,,positive,tidy,,,,,0,5,5,4,,,,,up,0,0.661079884,2016_Oct_03_1115,59.99010249,heterogeneity160929b,1,214302,,positive,neat,,,,,0,6,6,5,,,,,None,0,,2016_Oct_03_1115,59.99010249,heterogeneity160929b,1,214302,,negative,forgetful,,,,,0,7,7,31,,,,,down,0,1.575285912,2016_Oct_03_1115,59.99010249,heterogeneity160929b,1,214302,,positive,outgoing,,,,,0,8,8,17,,,,,down,0,1.058815002,2016_Oct_03_1115,59.99010249,heterogeneity160929b,1,214302,,positive,tender,,,,,0,9,9,6,,,,,up,0,1.00987792,2016_Oct_03_1115,59.99010249,heterogeneity160929b,1,214302,,negative,insecure,,,,,0,10,10,22,,,,,up,0,0.742558002,2016_Oct_03_1115,59.99010249,heterogeneity160929b,1,214302,,negative,irritable,,,,,0,11,11,27,,,,,up,0,1.342019081,2016_Oct_03_1115,59.99010249,heterogeneity160929b,1,214302,,positive,thrifty,,,,,0,12,12,2,,,,,down,0,1.142764807,2016_Oct_03_1115,59.99010249,heterogeneity160929b,1,214302,,positive,artistic,,,,,0,13,13,9,,,,,up,0,0.709079027,2016_Oct_03_1115,59.99010249,heterogeneity160929b,1,214302,,negative,cynical,,,,,0,14,14,37,,,,,up,0,1.1758039,2016_Oct_03_1115,59.99010249,heterogeneity160929b,1,214302,,positive,wise,,,,,0,15,15,19,,,,,up,0,1.710877895,2016_Oct_03_1115,59.99010249,heterogeneity160929b,1,214302,,negative,inhibited,,,,,0,16,16,25,,,,,up,0,1.941978931,2016_Oct_03_1115,59.99010249,heterogeneity160929b,1,214302,,positive,orderly,,,,,0,17,17,14,,,,,down,0,1.126178026,2016_Oct_03_1115,59.99010249,heterogeneity160929b,1,214302,,positive,confident,,,,,0,18,18,7,,,,,down,0,1.075503111,2016_Oct_03_1115,59.99010249,heterogeneity160929b,1,214302,,negative,childish,,,,,0,19,19,29,,,,,down,0,1.10916996,2016_Oct_03_1115,59.99010249,heterogeneity160929b,1,214302,,positive,trusting,,,,,0,20,20,8,,,,,up,0,0.792037964,2016_Oct_03_1115,59.99010249,heterogeneity160929b,1,214302,,positive,brilliant,,,,,0,21,21,12,,,,,up,0,0.892144918,2016_Oct_03_1115,59.99010249,heterogeneity160929b,1,214302,,negative,withdrawn,,,,,0,22,22,38,,,,,up,0,1.425414085,2016_Oct_03_1115,59.99010249,heterogeneity160929b,1,214302,,negative,worrying,,,,,0,23,23,32,,,,,up,0,1.025969982,2016_Oct_03_1115,59.99010249,heterogeneity160929b,1,214302,,negative,messy,,,,,0,24,24,36,,,,,up,0,1.110090971,2016_Oct_03_1115,59.99010249,heterogeneity160929b,1,214302,,negative,stubborn,,,,,0,25,25,39,,,,,up,0,0.975685835,2016_Oct_03_1115,59.99010249,heterogeneity160929b,1,214302,,positive,courageous,,,,,0,26,26,15,,,,,up,0,1.5729599,2016_Oct_03_1115,59.99010249,heterogeneity160929b,1,214302,,negative,anxious,,,,,0,27,27,35,,,,,up,0,1.092806101,2016_Oct_03_1115,59.99010249,heterogeneity160929b,1,214302,,negative,tense,,,,,0,28,28,26,,,,,up,0,0.860164165,2016_Oct_03_1115,59.99010249,heterogeneity160929b,1,214302,,positive,enthusiastic,,,,,0,29,29,16,,,,,None,0,,2016_Oct_03_1115,59.99010249,heterogeneity160929b,1,214302,,positive,disciplined,,,,,0,30,30,1,,,,,up,0,1.224900961,2016_Oct_03_1115,59.99010249,heterogeneity160929b,1,214302,,negative,moody,,,,,0,31,31,30,,,,,up,0,1.309990883,2016_Oct_03_1115,59.99010249,heterogeneity160929b,1,214302,,negative,clumsy,,,,,0,32,32,23,,,,,down,0,1.009262085,2016_Oct_03_1115,59.99010249,heterogeneity160929b,1,214302,,positive,talented,,,,,0,33,33,0,,,,,up,0,0.792583942,2016_Oct_03_1115,59.99010249,heterogeneity160929b,1,214302,,negative,impulsive,,,,,0,34,34,21,,,,,down,0,1.375552177,2016_Oct_03_1115,59.99010249,heterogeneity160929b,1,214302,,positive,idealistic,,,,,0,35,35,3,,,,,up,0,0.875169992,2016_Oct_03_1115,59.99010249,heterogeneity160929b,1,214302,,positive,ambitious,,,,,0,36,36,10,,,,,up,0,0.792320013,2016_Oct_03_1115,59.99010249,heterogeneity160929b,1,214302,,negative,gullible,,,,,0,37,37,34,,,,,down,0,2.009085178,2016_Oct_03_1115,59.99010249,heterogeneity160929b,1,214302,,negative,fearful,,,,,0,38,38,24,,,,,up,0,1.042845011,2016_Oct_03_1115,59.99010249,heterogeneity160929b,1,214302,,positive,inventive,,,,,0,39,39,18,,,,,up,0,1.075208902,2016_Oct_03_1115,59.99010249,heterogeneity160929b,1,214303,,negative,cynical,,,,,0,0,0,37,,,,,down,0,1.076572895,2016_Oct_03_1138,60.01353569,heterogeneity160929b,1,215303,,negative,fearful,,,,,0,1,1,24,,,,,down,0,1.492938995,2016_Oct_03_1138,60.01353569,heterogeneity160929b,1,215303,,negative,boring,,,,,0,2,2,20,,,,,down,0,0.792973042,2016_Oct_03_1138,60.01353569,heterogeneity160929b,1,215303,,negative,messy,,,,,0,3,3,36,,,,,up,0,1.360101938,2016_Oct_03_1138,60.01353569,heterogeneity160929b,1,215303,,positive,neat,,,,,0,4,4,5,,,,,up,0,0.7608881,2016_Oct_03_1138,60.01353569,heterogeneity160929b,1,215303,,negative,worrying,,,,,0,5,5,32,,,,,None,0,,2016_Oct_03_1138,60.01353569,heterogeneity160929b,1,215303,,positive,thrifty,,,,,0,6,6,2,,,,,up,0,1.109583139,2016_Oct_03_1138,60.01353569,heterogeneity160929b,1,215303,,negative,anxious,,,,,0,7,7,35,,,,,down,0,1.409343004,2016_Oct_03_1138,60.01353569,heterogeneity160929b,1,215303,,positive,ambitious,,,,,0,8,8,10,,,,,up,0,1.008418083,2016_Oct_03_1138,60.01353569,heterogeneity160929b,1,215303,,positive,wise,,,,,0,9,9,19,,,,,up,0,0.594347954,2016_Oct_03_1138,60.01353569,heterogeneity160929b,1,215303,,negative,clumsy,,,,,0,10,10,23,,,,,down,0,0.743074894,2016_Oct_03_1138,60.01353569,heterogeneity160929b,1,215303,,positive,outgoing,,,,,0,11,11,17,,,,,up,0,0.725860119,2016_Oct_03_1138,60.01353569,heterogeneity160929b,1,215303,,positive,artistic,,,,,0,12,12,9,,,,,up,0,0.875780106,2016_Oct_03_1138,60.01353569,heterogeneity160929b,1,215303,,positive,trusting,,,,,0,13,13,8,,,,,down,0,1.092450142,2016_Oct_03_1138,60.01353569,heterogeneity160929b,1,215303,,positive,courageous,,,,,0,14,14,15,,,,,up,0,0.807809114,2016_Oct_03_1138,60.01353569,heterogeneity160929b,1,215303,,positive,enthusiastic,,,,,0,15,15,16,,,,,up,0,0.757468939,2016_Oct_03_1138,60.01353569,heterogeneity160929b,1,215303,,negative,tense,,,,,0,16,16,26,,,,,up,0,1.626744986,2016_Oct_03_1138,60.01353569,heterogeneity160929b,1,215303,,negative,gullible,,,,,0,17,17,34,,,,,down,0,0.875897884,2016_Oct_03_1138,60.01353569,heterogeneity160929b,1,215303,,negative,irritable,,,,,0,18,18,27,,,,,down,0,0.992475986,2016_Oct_03_1138,60.01353569,heterogeneity160929b,1,215303,,negative,antisocial,,,,,0,19,19,33,,,,,down,0,1.091761112,2016_Oct_03_1138,60.01353569,heterogeneity160929b,1,215303,,negative,timid,,,,,0,20,20,28,,,,,down,0,0.859837055,2016_Oct_03_1138,60.01353569,heterogeneity160929b,1,215303,,positive,inventive,,,,,0,21,21,18,,,,,up,0,0.75891304,2016_Oct_03_1138,60.01353569,heterogeneity160929b,1,215303,,positive,disciplined,,,,,0,22,22,1,,,,,up,0,0.724956989,2016_Oct_03_1138,60.01353569,heterogeneity160929b,1,215303,,negative,inhibited,,,,,0,23,23,25,,,,,down,0,1.225465059,2016_Oct_03_1138,60.01353569,heterogeneity160929b,1,215303,,positive,confident,,,,,0,24,24,7,,,,,up,0,0.758905888,2016_Oct_03_1138,60.01353569,heterogeneity160929b,1,215303,,positive,persistent,,,,,0,25,25,13,,,,,up,0,0.758583069,2016_Oct_03_1138,60.01353569,heterogeneity160929b,1,215303,,negative,withdrawn,,,,,0,26,26,38,,,,,down,0,0.690174103,2016_Oct_03_1138,60.01353569,heterogeneity160929b,1,215303,,positive,talented,,,,,0,27,27,0,,,,,up,0,1.12609601,2016_Oct_03_1138,60.01353569,heterogeneity160929b,1,215303,,negative,forgetful,,,,,0,28,28,31,,,,,down,0,1.392122984,2016_Oct_03_1138,60.01353569,heterogeneity160929b,1,215303,,negative,moody,,,,,0,29,29,30,,,,,down,0,0.843536854,2016_Oct_03_1138,60.01353569,heterogeneity160929b,1,215303,,positive,orderly,,,,,0,30,30,14,,,,,up,0,1.192326069,2016_Oct_03_1138,60.01353569,heterogeneity160929b,1,215303,,negative,stubborn,,,,,0,31,31,39,,,,,down,0,1.392424107,2016_Oct_03_1138,60.01353569,heterogeneity160929b,1,215303,,positive,brilliant,,,,,0,32,32,12,,,,,up,0,0.825211048,2016_Oct_03_1138,60.01353569,heterogeneity160929b,1,215303,,positive,proud,,,,,0,33,33,11,,,,,up,0,0.793403149,2016_Oct_03_1138,60.01353569,heterogeneity160929b,1,215303,,positive,tidy,,,,,0,34,34,4,,,,,up,0,0.977759123,2016_Oct_03_1138,60.01353569,heterogeneity160929b,1,215303,,positive,idealistic,,,,,0,35,35,3,,,,,up,0,1.275164127,2016_Oct_03_1138,60.01353569,heterogeneity160929b,1,215303,,negative,impulsive,,,,,0,36,36,21,,,,,down,0,1.275472879,2016_Oct_03_1138,60.01353569,heterogeneity160929b,1,215303,,negative,childish,,,,,0,37,37,29,,,,,down,0,1.192492962,2016_Oct_03_1138,60.01353569,heterogeneity160929b,1,215303,,positive,tender,,,,,0,38,38,6,,,,,down,0,1.143079996,2016_Oct_03_1138,60.01353569,heterogeneity160929b,1,215303,,negative,insecure,,,,,0,39,39,22,,,,,down,0,0.708907843,2016_Oct_03_1138,60.01353569,heterogeneity160929b,1,215304,,negative,worrying,,,,,0,0,0,32,,,,,up,0,0.926167965,2016_Oct_03_1158,60.00417738,heterogeneity160929b,1,216304,,positive,brilliant,,,,,0,1,1,12,,,,,up,0,0.642183065,2016_Oct_03_1158,60.00417738,heterogeneity160929b,1,216304,,positive,confident,,,,,0,2,2,7,,,,,up,0,0.591973066,2016_Oct_03_1158,60.00417738,heterogeneity160929b,1,216304,,positive,outgoing,,,,,0,3,3,17,,,,,up,0,0.592640877,2016_Oct_03_1158,60.00417738,heterogeneity160929b,1,216304,,positive,neat,,,,,0,4,4,5,,,,,up,0,0.511008978,2016_Oct_03_1158,60.00417738,heterogeneity160929b,1,216304,,negative,insecure,,,,,0,5,5,22,,,,,down,0,1.09242487,2016_Oct_03_1158,60.00417738,heterogeneity160929b,1,216304,,positive,wise,,,,,0,6,6,19,,,,,up,0,0.710835934,2016_Oct_03_1158,60.00417738,heterogeneity160929b,1,216304,,negative,fearful,,,,,0,7,7,24,,,,,down,0,0.792317867,2016_Oct_03_1158,60.00417738,heterogeneity160929b,1,216304,,positive,proud,,,,,0,8,8,11,,,,,up,0,0.560127974,2016_Oct_03_1158,60.00417738,heterogeneity160929b,1,216304,,negative,moody,,,,,0,9,9,30,,,,,down,0,0.827008963,2016_Oct_03_1158,60.00417738,heterogeneity160929b,1,216304,,positive,persistent,,,,,0,10,10,13,,,,,up,0,0.691506147,2016_Oct_03_1158,60.00417738,heterogeneity160929b,1,216304,,negative,messy,,,,,0,11,11,36,,,,,down,0,0.660226107,2016_Oct_03_1158,60.00417738,heterogeneity160929b,1,216304,,positive,enthusiastic,,,,,0,12,12,16,,,,,up,0,0.757594109,2016_Oct_03_1158,60.00417738,heterogeneity160929b,1,216304,,negative,forgetful,,,,,0,13,13,31,,,,,down,0,0.708871841,2016_Oct_03_1158,60.00417738,heterogeneity160929b,1,216304,,negative,irritable,,,,,0,14,14,27,,,,,down,0,0.70855093,2016_Oct_03_1158,60.00417738,heterogeneity160929b,1,216304,,negative,gullible,,,,,0,15,15,34,,,,,up,0,0.825896978,2016_Oct_03_1158,60.00417738,heterogeneity160929b,1,216304,,negative,tense,,,,,0,16,16,26,,,,,up,0,0.610330105,2016_Oct_03_1158,60.00417738,heterogeneity160929b,1,216304,,negative,childish,,,,,0,17,17,29,,,,,down,0,0.809455872,2016_Oct_03_1158,60.00417738,heterogeneity160929b,1,216304,,positive,artistic,,,,,0,18,18,9,,,,,up,0,0.542662859,2016_Oct_03_1158,60.00417738,heterogeneity160929b,1,216304,,positive,talented,,,,,0,19,19,0,,,,,up,0,0.525878191,2016_Oct_03_1158,60.00417738,heterogeneity160929b,1,216304,,negative,cynical,,,,,0,20,20,37,,,,,down,0,0.692718029,2016_Oct_03_1158,60.00417738,heterogeneity160929b,1,216304,,positive,disciplined,,,,,0,21,21,1,,,,,down,0,0.674989939,2016_Oct_03_1158,60.00417738,heterogeneity160929b,1,216304,,negative,impulsive,,,,,0,22,22,21,,,,,down,0,0.742305994,2016_Oct_03_1158,60.00417738,heterogeneity160929b,1,216304,,negative,anxious,,,,,0,23,23,35,,,,,down,0,0.826192141,2016_Oct_03_1158,60.00417738,heterogeneity160929b,1,216304,,negative,clumsy,,,,,0,24,24,23,,,,,down,0,0.676637888,2016_Oct_03_1158,60.00417738,heterogeneity160929b,1,216304,,positive,idealistic,,,,,0,25,25,3,,,,,up,0,0.741913795,2016_Oct_03_1158,60.00417738,heterogeneity160929b,1,216304,,positive,courageous,,,,,0,26,26,15,,,,,up,0,0.639929056,2016_Oct_03_1158,60.00417738,heterogeneity160929b,1,216304,,negative,timid,,,,,0,27,27,28,,,,,down,0,0.710259914,2016_Oct_03_1158,60.00417738,heterogeneity160929b,1,216304,,positive,trusting,,,,,0,28,28,8,,,,,up,0,0.575949907,2016_Oct_03_1158,60.00417738,heterogeneity160929b,1,216304,,negative,antisocial,,,,,0,29,29,33,,,,,down,0,0.675153017,2016_Oct_03_1158,60.00417738,heterogeneity160929b,1,216304,,positive,tidy,,,,,0,30,30,4,,,,,up,0,0.643913031,2016_Oct_03_1158,60.00417738,heterogeneity160929b,1,216304,,negative,inhibited,,,,,0,31,31,25,,,,,down,0,0.708977938,2016_Oct_03_1158,60.00417738,heterogeneity160929b,1,216304,,positive,ambitious,,,,,0,32,32,10,,,,,up,0,0.758965015,2016_Oct_03_1158,60.00417738,heterogeneity160929b,1,216304,,negative,withdrawn,,,,,0,33,33,38,,,,,down,0,0.808465958,2016_Oct_03_1158,60.00417738,heterogeneity160929b,1,216304,,negative,stubborn,,,,,0,34,34,39,,,,,up,0,1.225973129,2016_Oct_03_1158,60.00417738,heterogeneity160929b,1,216304,,positive,thrifty,,,,,0,35,35,2,,,,,down,0,0.892827988,2016_Oct_03_1158,60.00417738,heterogeneity160929b,1,216304,,positive,inventive,,,,,0,36,36,18,,,,,down,0,0.709017038,2016_Oct_03_1158,60.00417738,heterogeneity160929b,1,216304,,positive,tender,,,,,0,37,37,6,,,,,up,0,0.809925079,2016_Oct_03_1158,60.00417738,heterogeneity160929b,1,216304,,negative,boring,,,,,0,38,38,20,,,,,down,0,0.643128872,2016_Oct_03_1158,60.00417738,heterogeneity160929b,1,216304,,positive,orderly,,,,,0,39,39,14,,,,,up,0,0.725775003,2016_Oct_03_1158,60.00417738,heterogeneity160929b,1,216305,,negative,tense,,,,,0,0,0,26,,,,,down,0,0.810469866,2016_Oct_03_1228,60.02762158,heterogeneity160929b,1,217305,,negative,irritable,,,,,0,1,1,27,,,,,down,0,0.658998966,2016_Oct_03_1228,60.02762158,heterogeneity160929b,1,217305,,positive,trusting,,,,,0,2,2,8,,,,,up,0,0.642469883,2016_Oct_03_1228,60.02762158,heterogeneity160929b,1,217305,,positive,inventive,,,,,0,3,3,18,,,,,up,0,0.775605917,2016_Oct_03_1228,60.02762158,heterogeneity160929b,1,217305,,positive,courageous,,,,,0,4,4,15,,,,,up,0,0.625130892,2016_Oct_03_1228,60.02762158,heterogeneity160929b,1,217305,,negative,boring,,,,,0,5,5,20,,,,,down,0,0.609841108,2016_Oct_03_1228,60.02762158,heterogeneity160929b,1,217305,,negative,childish,,,,,0,6,6,29,,,,,down,0,0.859315157,2016_Oct_03_1228,60.02762158,heterogeneity160929b,1,217305,,negative,inhibited,,,,,0,7,7,25,,,,,down,0,0.858954906,2016_Oct_03_1228,60.02762158,heterogeneity160929b,1,217305,,positive,disciplined,,,,,0,8,8,1,,,,,up,0,0.607793093,2016_Oct_03_1228,60.02762158,heterogeneity160929b,1,217305,,positive,ambitious,,,,,0,9,9,10,,,,,up,0,0.625545025,2016_Oct_03_1228,60.02762158,heterogeneity160929b,1,217305,,positive,orderly,,,,,0,10,10,14,,,,,up,0,0.642712831,2016_Oct_03_1228,60.02762158,heterogeneity160929b,1,217305,,positive,enthusiastic,,,,,0,11,11,16,,,,,up,0,0.52448988,2016_Oct_03_1228,60.02762158,heterogeneity160929b,1,217305,,positive,tender,,,,,0,12,12,6,,,,,down,0,0.693358183,2016_Oct_03_1228,60.02762158,heterogeneity160929b,1,217305,,negative,moody,,,,,0,13,13,30,,,,,up,0,0.643592834,2016_Oct_03_1228,60.02762158,heterogeneity160929b,1,217305,,positive,neat,,,,,0,14,14,5,,,,,up,0,0.577285051,2016_Oct_03_1228,60.02762158,heterogeneity160929b,1,217305,,negative,insecure,,,,,0,15,15,22,,,,,down,0,0.542528868,2016_Oct_03_1228,60.02762158,heterogeneity160929b,1,217305,,negative,messy,,,,,0,16,16,36,,,,,down,0,0.61033082,2016_Oct_03_1228,60.02762158,heterogeneity160929b,1,217305,,negative,worrying,,,,,0,17,17,32,,,,,down,0,0.842612982,2016_Oct_03_1228,60.02762158,heterogeneity160929b,1,217305,,negative,anxious,,,,,0,18,18,35,,,,,down,0,0.676262856,2016_Oct_03_1228,60.02762158,heterogeneity160929b,1,217305,,negative,withdrawn,,,,,0,19,19,38,,,,,down,0,0.6255548,2016_Oct_03_1228,60.02762158,heterogeneity160929b,1,217305,,negative,clumsy,,,,,0,20,20,23,,,,,down,0,0.509428978,2016_Oct_03_1228,60.02762158,heterogeneity160929b,1,217305,,negative,forgetful,,,,,0,21,21,31,,,,,up,0,0.659074068,2016_Oct_03_1228,60.02762158,heterogeneity160929b,1,217305,,positive,outgoing,,,,,0,22,22,17,,,,,up,0,0.509203196,2016_Oct_03_1228,60.02762158,heterogeneity160929b,1,217305,,positive,thrifty,,,,,0,23,23,2,,,,,down,0,0.592948198,2016_Oct_03_1228,60.02762158,heterogeneity160929b,1,217305,,negative,cynical,,,,,0,24,24,37,,,,,down,0,0.709673882,2016_Oct_03_1228,60.02762158,heterogeneity160929b,1,217305,,positive,talented,,,,,0,25,25,0,,,,,up,0,0.492809057,2016_Oct_03_1228,60.02762158,heterogeneity160929b,1,217305,,positive,brilliant,,,,,0,26,26,12,,,,,down,0,0.723426104,2016_Oct_03_1228,60.02762158,heterogeneity160929b,1,217305,,negative,impulsive,,,,,0,27,27,21,,,,,up,0,0.592279911,2016_Oct_03_1228,60.02762158,heterogeneity160929b,1,217305,,negative,fearful,,,,,0,28,28,24,,,,,down,0,0.52620697,2016_Oct_03_1228,60.02762158,heterogeneity160929b,1,217305,,negative,stubborn,,,,,0,29,29,39,,,,,up,0,0.709229946,2016_Oct_03_1228,60.02762158,heterogeneity160929b,1,217305,,negative,antisocial,,,,,0,30,30,33,,,,,down,0,0.625316858,2016_Oct_03_1228,60.02762158,heterogeneity160929b,1,217305,,positive,idealistic,,,,,0,31,31,3,,,,,up,0,0.60859108,2016_Oct_03_1228,60.02762158,heterogeneity160929b,1,217305,,positive,artistic,,,,,0,32,32,9,,,,,down,0,0.675523996,2016_Oct_03_1228,60.02762158,heterogeneity160929b,1,217305,,positive,confident,,,,,0,33,33,7,,,,,up,0,0.475741148,2016_Oct_03_1228,60.02762158,heterogeneity160929b,1,217305,,positive,wise,,,,,0,34,34,19,,,,,up,0,0.577737093,2016_Oct_03_1228,60.02762158,heterogeneity160929b,1,217305,,positive,tidy,,,,,0,35,35,4,,,,,down,0,0.594467878,2016_Oct_03_1228,60.02762158,heterogeneity160929b,1,217305,,negative,timid,,,,,0,36,36,28,,,,,down,0,0.776827097,2016_Oct_03_1228,60.02762158,heterogeneity160929b,1,217305,,positive,proud,,,,,0,37,37,11,,,,,up,0,0.526437044,2016_Oct_03_1228,60.02762158,heterogeneity160929b,1,217305,,positive,persistent,,,,,0,38,38,13,,,,,up,0,0.758597136,2016_Oct_03_1228,60.02762158,heterogeneity160929b,1,217305,,negative,gullible,,,,,0,39,39,34,,,,,down,0,0.658934832,2016_Oct_03_1228,60.02762158,heterogeneity160929b,1,217306,,positive,courageous,,,,,0,0,0,15,,,,,up,0,0.925102949,2016_Oct_03_1240,59.99593762,heterogeneity160929b,1,218306,,negative,childish,,,,,0,1,1,29,,,,,down,0,0.925594091,2016_Oct_03_1240,59.99593762,heterogeneity160929b,1,218306,,positive,thrifty,,,,,0,2,2,2,,,,,up,0,1.126148939,2016_Oct_03_1240,59.99593762,heterogeneity160929b,1,218306,,negative,boring,,,,,0,3,3,20,,,,,down,0,0.760039091,2016_Oct_03_1240,59.99593762,heterogeneity160929b,1,218306,,positive,orderly,,,,,0,4,4,14,,,,,up,0,1.026129007,2016_Oct_03_1240,59.99593762,heterogeneity160929b,1,218306,,negative,clumsy,,,,,0,5,5,23,,,,,down,0,0.84313798,2016_Oct_03_1240,59.99593762,heterogeneity160929b,1,218306,,positive,idealistic,,,,,0,6,6,3,,,,,up,0,0.858340979,2016_Oct_03_1240,59.99593762,heterogeneity160929b,1,218306,,positive,tender,,,,,0,7,7,6,,,,,up,0,1.392830133,2016_Oct_03_1240,59.99593762,heterogeneity160929b,1,218306,,negative,moody,,,,,0,8,8,30,,,,,down,0,0.86036706,2016_Oct_03_1240,59.99593762,heterogeneity160929b,1,218306,,negative,forgetful,,,,,0,9,9,31,,,,,down,0,0.892071962,2016_Oct_03_1240,59.99593762,heterogeneity160929b,1,218306,,negative,cynical,,,,,0,10,10,37,,,,,down,0,0.842098951,2016_Oct_03_1240,59.99593762,heterogeneity160929b,1,218306,,negative,withdrawn,,,,,0,11,11,38,,,,,down,0,1.05903697,2016_Oct_03_1240,59.99593762,heterogeneity160929b,1,218306,,positive,trusting,,,,,0,12,12,8,,,,,up,0,0.776058912,2016_Oct_03_1240,59.99593762,heterogeneity160929b,1,218306,,negative,stubborn,,,,,0,13,13,39,,,,,up,0,1.358732939,2016_Oct_03_1240,59.99593762,heterogeneity160929b,1,218306,,positive,confident,,,,,0,14,14,7,,,,,up,0,0.875502825,2016_Oct_03_1240,59.99593762,heterogeneity160929b,1,218306,,positive,brilliant,,,,,0,15,15,12,,,,,up,0,1.425448895,2016_Oct_03_1240,59.99593762,heterogeneity160929b,1,218306,,negative,insecure,,,,,0,16,16,22,,,,,down,0,0.826041937,2016_Oct_03_1240,59.99593762,heterogeneity160929b,1,218306,,negative,timid,,,,,0,17,17,28,,,,,down,0,0.793518066,2016_Oct_03_1240,59.99593762,heterogeneity160929b,1,218306,,positive,outgoing,,,,,0,18,18,17,,,,,up,0,0.859223127,2016_Oct_03_1240,59.99593762,heterogeneity160929b,1,218306,,negative,antisocial,,,,,0,19,19,33,,,,,down,0,0.758180857,2016_Oct_03_1240,59.99593762,heterogeneity160929b,1,218306,,positive,disciplined,,,,,0,20,20,1,,,,,up,0,0.791656017,2016_Oct_03_1240,59.99593762,heterogeneity160929b,1,218306,,negative,inhibited,,,,,0,21,21,25,,,,,down,0,1.025365114,2016_Oct_03_1240,59.99593762,heterogeneity160929b,1,218306,,negative,worrying,,,,,0,22,22,32,,,,,down,0,0.859361887,2016_Oct_03_1240,59.99593762,heterogeneity160929b,1,218306,,positive,proud,,,,,0,23,23,11,,,,,up,0,0.860286951,2016_Oct_03_1240,59.99593762,heterogeneity160929b,1,218306,,positive,inventive,,,,,0,24,24,18,,,,,up,0,0.975487947,2016_Oct_03_1240,59.99593762,heterogeneity160929b,1,218306,,negative,anxious,,,,,0,25,25,35,,,,,down,0,1.007307053,2016_Oct_03_1240,59.99593762,heterogeneity160929b,1,218306,,positive,neat,,,,,0,26,26,5,,,,,up,0,0.911255836,2016_Oct_03_1240,59.99593762,heterogeneity160929b,1,218306,,negative,fearful,,,,,0,27,27,24,,,,,down,0,0.84285903,2016_Oct_03_1240,59.99593762,heterogeneity160929b,1,218306,,negative,impulsive,,,,,0,28,28,21,,,,,down,0,1.092355013,2016_Oct_03_1240,59.99593762,heterogeneity160929b,1,218306,,positive,artistic,,,,,0,29,29,9,,,,,up,0,0.892500877,2016_Oct_03_1240,59.99593762,heterogeneity160929b,1,218306,,negative,gullible,,,,,0,30,30,34,,,,,down,0,0.975978136,2016_Oct_03_1240,59.99593762,heterogeneity160929b,1,218306,,positive,ambitious,,,,,0,31,31,10,,,,,up,0,0.858906031,2016_Oct_03_1240,59.99593762,heterogeneity160929b,1,218306,,positive,enthusiastic,,,,,0,32,32,16,,,,,up,0,0.740658045,2016_Oct_03_1240,59.99593762,heterogeneity160929b,1,218306,,positive,persistent,,,,,0,33,33,13,,,,,up,0,0.775451899,2016_Oct_03_1240,59.99593762,heterogeneity160929b,1,218306,,positive,talented,,,,,0,34,34,0,,,,,up,0,0.792526007,2016_Oct_03_1240,59.99593762,heterogeneity160929b,1,218306,,negative,tense,,,,,0,35,35,26,,,,,down,0,0.710165024,2016_Oct_03_1240,59.99593762,heterogeneity160929b,1,218306,,negative,messy,,,,,0,36,36,36,,,,,down,0,0.826947212,2016_Oct_03_1240,59.99593762,heterogeneity160929b,1,218306,,positive,tidy,,,,,0,37,37,4,,,,,up,0,0.74454999,2016_Oct_03_1240,59.99593762,heterogeneity160929b,1,218306,,positive,wise,,,,,0,38,38,19,,,,,up,0,1.026695013,2016_Oct_03_1240,59.99593762,heterogeneity160929b,1,218306,,negative,irritable,,,,,0,39,39,27,,,,,down,0,0.85869503,2016_Oct_03_1240,59.99593762,heterogeneity160929b,1,218219,,negative,antisocial,,,,,0,0,0,33,,,,,down,0,1.308437824,2016_Oct_04_1617,60.03303438,heterogeneity160929b,1,219219,,negative,clumsy,,,,,0,1,1,23,,,,,up,0,0.926563025,2016_Oct_04_1617,60.03303438,heterogeneity160929b,1,219219,,negative,worrying,,,,,0,2,2,32,,,,,up,0,1.108721018,2016_Oct_04_1617,60.03303438,heterogeneity160929b,1,219219,,negative,inhibited,,,,,0,3,3,25,,,,,down,0,1.292112112,2016_Oct_04_1617,60.03303438,heterogeneity160929b,1,219219,,positive,brilliant,,,,,0,4,4,12,,,,,up,0,0.942203045,2016_Oct_04_1617,60.03303438,heterogeneity160929b,1,219219,,positive,idealistic,,,,,0,5,5,3,,,,,down,0,1.108443975,2016_Oct_04_1617,60.03303438,heterogeneity160929b,1,219219,,positive,artistic,,,,,0,6,6,9,,,,,down,0,0.792494059,2016_Oct_04_1617,60.03303438,heterogeneity160929b,1,219219,,negative,boring,,,,,0,7,7,20,,,,,down,0,1.093170881,2016_Oct_04_1617,60.03303438,heterogeneity160929b,1,219219,,negative,messy,,,,,0,8,8,36,,,,,down,0,0.926575899,2016_Oct_04_1617,60.03303438,heterogeneity160929b,1,219219,,negative,irritable,,,,,0,9,9,27,,,,,up,0,0.924857855,2016_Oct_04_1617,60.03303438,heterogeneity160929b,1,219219,,positive,orderly,,,,,0,10,10,14,,,,,up,0,0.742896795,2016_Oct_04_1617,60.03303438,heterogeneity160929b,1,219219,,negative,cynical,,,,,0,11,11,37,,,,,up,0,0.826296091,2016_Oct_04_1617,60.03303438,heterogeneity160929b,1,219219,,positive,neat,,,,,0,12,12,5,,,,,up,0,0.69451499,2016_Oct_04_1617,60.03303438,heterogeneity160929b,1,219219,,positive,disciplined,,,,,0,13,13,1,,,,,up,0,1.641513824,2016_Oct_04_1617,60.03303438,heterogeneity160929b,1,219219,,negative,stubborn,,,,,0,14,14,39,,,,,up,0,0.792322159,2016_Oct_04_1617,60.03303438,heterogeneity160929b,1,219219,,positive,wise,,,,,0,15,15,19,,,,,down,0,0.960911989,2016_Oct_04_1617,60.03303438,heterogeneity160929b,1,219219,,negative,anxious,,,,,0,16,16,35,,,,,up,0,0.726224184,2016_Oct_04_1617,60.03303438,heterogeneity160929b,1,219219,,positive,tidy,,,,,0,17,17,4,,,,,up,0,0.744406939,2016_Oct_04_1617,60.03303438,heterogeneity160929b,1,219219,,negative,gullible,,,,,0,18,18,34,,,,,down,0,0.89198184,2016_Oct_04_1617,60.03303438,heterogeneity160929b,1,219219,,positive,persistent,,,,,0,19,19,13,,,,,up,0,0.741935015,2016_Oct_04_1617,60.03303438,heterogeneity160929b,1,219219,,positive,courageous,,,,,0,20,20,15,,,,,down,0,1.041378021,2016_Oct_04_1617,60.03303438,heterogeneity160929b,1,219219,,positive,tender,,,,,0,21,21,6,,,,,down,0,1.359728098,2016_Oct_04_1617,60.03303438,heterogeneity160929b,1,219219,,negative,withdrawn,,,,,0,22,22,38,,,,,down,0,1.425330162,2016_Oct_04_1617,60.03303438,heterogeneity160929b,1,219219,,negative,timid,,,,,0,23,23,28,,,,,down,0,1.510212898,2016_Oct_04_1617,60.03303438,heterogeneity160929b,1,219219,,negative,childish,,,,,0,24,24,29,,,,,down,0,0.959307194,2016_Oct_04_1617,60.03303438,heterogeneity160929b,1,219219,,positive,inventive,,,,,0,25,25,18,,,,,up,0,2.125329018,2016_Oct_04_1617,60.03303438,heterogeneity160929b,1,219219,,positive,talented,,,,,0,26,26,0,,,,,up,0,1.273655891,2016_Oct_04_1617,60.03303438,heterogeneity160929b,1,219219,,positive,proud,,,,,0,27,27,11,,,,,up,0,0.843729019,2016_Oct_04_1617,60.03303438,heterogeneity160929b,1,219219,,positive,confident,,,,,0,28,28,7,,,,,up,0,0.8423388,2016_Oct_04_1617,60.03303438,heterogeneity160929b,1,219219,,negative,forgetful,,,,,0,29,29,31,,,,,down,0,0.908948898,2016_Oct_04_1617,60.03303438,heterogeneity160929b,1,219219,,positive,enthusiastic,,,,,0,30,30,16,,,,,up,0,0.857723951,2016_Oct_04_1617,60.03303438,heterogeneity160929b,1,219219,,positive,ambitious,,,,,0,31,31,10,,,,,up,0,0.692232847,2016_Oct_04_1617,60.03303438,heterogeneity160929b,1,219219,,positive,trusting,,,,,0,32,32,8,,,,,up,0,0.82554698,2016_Oct_04_1617,60.03303438,heterogeneity160929b,1,219219,,positive,thrifty,,,,,0,33,33,2,,,,,down,0,0.892872095,2016_Oct_04_1617,60.03303438,heterogeneity160929b,1,219219,,negative,moody,,,,,0,34,34,30,,,,,up,0,0.760176182,2016_Oct_04_1617,60.03303438,heterogeneity160929b,1,219219,,negative,impulsive,,,,,0,35,35,21,,,,,up,0,0.775439024,2016_Oct_04_1617,60.03303438,heterogeneity160929b,1,219219,,positive,outgoing,,,,,0,36,36,17,,,,,up,0,0.825372934,2016_Oct_04_1617,60.03303438,heterogeneity160929b,1,219219,,negative,insecure,,,,,0,37,37,22,,,,,down,0,1.342342138,2016_Oct_04_1617,60.03303438,heterogeneity160929b,1,219219,,negative,tense,,,,,0,38,38,26,,,,,up,0,0.727036953,2016_Oct_04_1617,60.03303438,heterogeneity160929b,1,219219,,negative,fearful,,,,,0,39,39,24,,,,,down,0,1.442433119,2016_Oct_04_1617,60.03303438,heterogeneity160929b,1,219220,,positive,proud,,,,,0,0,0,11,,,,,up,0,0.593844891,2016_Oct_04_1654,59.99773988,heterogeneity160929b,1,220220,,positive,thrifty,,,,,0,1,1,2,,,,,up,0,0.742787838,2016_Oct_04_1654,59.99773988,heterogeneity160929b,1,220220,,negative,antisocial,,,,,0,2,2,33,,,,,down,0,0.741426945,2016_Oct_04_1654,59.99773988,heterogeneity160929b,1,220220,,positive,courageous,,,,,0,3,3,15,,,,,up,0,0.908491135,2016_Oct_04_1654,59.99773988,heterogeneity160929b,1,220220,,negative,inhibited,,,,,0,4,4,25,,,,,down,0,1.375585079,2016_Oct_04_1654,59.99773988,heterogeneity160929b,1,220220,,negative,tense,,,,,0,5,5,26,,,,,up,0,0.97617197,2016_Oct_04_1654,59.99773988,heterogeneity160929b,1,220220,,positive,enthusiastic,,,,,0,6,6,16,,,,,up,0,0.641052961,2016_Oct_04_1654,59.99773988,heterogeneity160929b,1,220220,,negative,irritable,,,,,0,7,7,27,,,,,up,0,0.95882988,2016_Oct_04_1654,59.99773988,heterogeneity160929b,1,220220,,negative,clumsy,,,,,0,8,8,23,,,,,down,0,0.893037796,2016_Oct_04_1654,59.99773988,heterogeneity160929b,1,220220,,negative,impulsive,,,,,0,9,9,21,,,,,down,0,1.242115021,2016_Oct_04_1654,59.99773988,heterogeneity160929b,1,220220,,positive,tender,,,,,0,10,10,6,,,,,up,0,0.759845018,2016_Oct_04_1654,59.99773988,heterogeneity160929b,1,220220,,positive,orderly,,,,,0,11,11,14,,,,,up,0,0.72636199,2016_Oct_04_1654,59.99773988,heterogeneity160929b,1,220220,,positive,idealistic,,,,,0,12,12,3,,,,,up,0,0.692070007,2016_Oct_04_1654,59.99773988,heterogeneity160929b,1,220220,,positive,wise,,,,,0,13,13,19,,,,,up,0,0.54419589,2016_Oct_04_1654,59.99773988,heterogeneity160929b,1,220220,,positive,disciplined,,,,,0,14,14,1,,,,,up,0,0.874332905,2016_Oct_04_1654,59.99773988,heterogeneity160929b,1,220220,,negative,insecure,,,,,0,15,15,22,,,,,down,0,1.009105921,2016_Oct_04_1654,59.99773988,heterogeneity160929b,1,220220,,positive,trusting,,,,,0,16,16,8,,,,,up,0,0.742572069,2016_Oct_04_1654,59.99773988,heterogeneity160929b,1,220220,,positive,artistic,,,,,0,17,17,9,,,,,up,0,0.725991964,2016_Oct_04_1654,59.99773988,heterogeneity160929b,1,220220,,negative,boring,,,,,0,18,18,20,,,,,down,0,0.909868002,2016_Oct_04_1654,59.99773988,heterogeneity160929b,1,220220,,negative,moody,,,,,0,19,19,30,,,,,up,0,1.310304165,2016_Oct_04_1654,59.99773988,heterogeneity160929b,1,220220,,negative,stubborn,,,,,0,20,20,39,,,,,down,0,0.958702087,2016_Oct_04_1654,59.99773988,heterogeneity160929b,1,220220,,positive,persistent,,,,,0,21,21,13,,,,,up,0,0.758481979,2016_Oct_04_1654,59.99773988,heterogeneity160929b,1,220220,,negative,fearful,,,,,0,22,22,24,,,,,down,0,0.859536886,2016_Oct_04_1654,59.99773988,heterogeneity160929b,1,220220,,positive,ambitious,,,,,0,23,23,10,,,,,up,0,1.041632175,2016_Oct_04_1654,59.99773988,heterogeneity160929b,1,220220,,negative,gullible,,,,,0,24,24,34,,,,,down,0,0.87591815,2016_Oct_04_1654,59.99773988,heterogeneity160929b,1,220220,,positive,tidy,,,,,0,25,25,4,,,,,down,0,1.211111069,2016_Oct_04_1654,59.99773988,heterogeneity160929b,1,220220,,positive,brilliant,,,,,0,26,26,12,,,,,up,0,0.840034962,2016_Oct_04_1654,59.99773988,heterogeneity160929b,1,220220,,negative,messy,,,,,0,27,27,36,,,,,down,0,0.776935101,2016_Oct_04_1654,59.99773988,heterogeneity160929b,1,220220,,negative,timid,,,,,0,28,28,28,,,,,down,0,1.260088921,2016_Oct_04_1654,59.99773988,heterogeneity160929b,1,220220,,positive,neat,,,,,0,29,29,5,,,,,up,0,0.744418144,2016_Oct_04_1654,59.99773988,heterogeneity160929b,1,220220,,positive,talented,,,,,0,30,30,0,,,,,up,0,0.708742142,2016_Oct_04_1654,59.99773988,heterogeneity160929b,1,220220,,positive,outgoing,,,,,0,31,31,17,,,,,up,0,0.576062918,2016_Oct_04_1654,59.99773988,heterogeneity160929b,1,220220,,positive,inventive,,,,,0,32,32,18,,,,,up,0,1.14221406,2016_Oct_04_1654,59.99773988,heterogeneity160929b,1,220220,,negative,withdrawn,,,,,0,33,33,38,,,,,down,0,0.958406925,2016_Oct_04_1654,59.99773988,heterogeneity160929b,1,220220,,negative,forgetful,,,,,0,34,34,31,,,,,down,0,1.12519908,2016_Oct_04_1654,59.99773988,heterogeneity160929b,1,220220,,negative,childish,,,,,0,35,35,29,,,,,down,0,1.242444992,2016_Oct_04_1654,59.99773988,heterogeneity160929b,1,220220,,positive,confident,,,,,0,36,36,7,,,,,up,0,0.759021997,2016_Oct_04_1654,59.99773988,heterogeneity160929b,1,220220,,negative,cynical,,,,,0,37,37,37,,,,,down,0,0.842943192,2016_Oct_04_1654,59.99773988,heterogeneity160929b,1,220220,,negative,anxious,,,,,0,38,38,35,,,,,down,0,0.72636199,2016_Oct_04_1654,59.99773988,heterogeneity160929b,1,220220,,negative,worrying,,,,,0,39,39,32,,,,,down,0,0.858913183,2016_Oct_04_1654,59.99773988,heterogeneity160929b,1,220221,,positive,courageous,,,,,0,0,0,15,,,,,up,0,1.375041008,2016_Oct_04_1710,59.9865848,heterogeneity160929b,1,221221,,negative,anxious,,,,,0,1,1,35,,,,,up,0,1.125902891,2016_Oct_04_1710,59.9865848,heterogeneity160929b,1,221221,,negative,antisocial,,,,,0,2,2,33,,,,,up,0,1.591756105,2016_Oct_04_1710,59.9865848,heterogeneity160929b,1,221221,,positive,artistic,,,,,0,3,3,9,,,,,up,0,1.14253211,2016_Oct_04_1710,59.9865848,heterogeneity160929b,1,221221,,negative,worrying,,,,,0,4,4,32,,,,,up,0,1.142591,2016_Oct_04_1710,59.9865848,heterogeneity160929b,1,221221,,positive,confident,,,,,0,5,5,7,,,,,down,0,1.24229002,2016_Oct_04_1710,59.9865848,heterogeneity160929b,1,221221,,negative,tense,,,,,0,6,6,26,,,,,up,0,1.326884985,2016_Oct_04_1710,59.9865848,heterogeneity160929b,1,221221,,positive,disciplined,,,,,0,7,7,1,,,,,up,0,0.97460413,2016_Oct_04_1710,59.9865848,heterogeneity160929b,1,221221,,positive,enthusiastic,,,,,0,8,8,16,,,,,down,0,1.473688841,2016_Oct_04_1710,59.9865848,heterogeneity160929b,1,221221,,negative,timid,,,,,0,9,9,28,,,,,down,0,1.093511105,2016_Oct_04_1710,59.9865848,heterogeneity160929b,1,221221,,negative,insecure,,,,,0,10,10,22,,,,,up,0,1.809293985,2016_Oct_04_1710,59.9865848,heterogeneity160929b,1,221221,,negative,messy,,,,,0,11,11,36,,,,,down,0,1.160146952,2016_Oct_04_1710,59.9865848,heterogeneity160929b,1,221221,,positive,persistent,,,,,0,12,12,13,,,,,up,0,1.025079012,2016_Oct_04_1710,59.9865848,heterogeneity160929b,1,221221,,negative,inhibited,,,,,0,13,13,25,,,,,up,0,2.158321142,2016_Oct_04_1710,59.9865848,heterogeneity160929b,1,221221,,negative,irritable,,,,,0,14,14,27,,,,,down,0,1.392225027,2016_Oct_04_1710,59.9865848,heterogeneity160929b,1,221221,,positive,outgoing,,,,,0,15,15,17,,,,,down,0,1.12577486,2016_Oct_04_1710,59.9865848,heterogeneity160929b,1,221221,,negative,fearful,,,,,0,16,16,24,,,,,up,0,1.159566879,2016_Oct_04_1710,59.9865848,heterogeneity160929b,1,221221,,negative,cynical,,,,,0,17,17,37,,,,,up,0,1.409457922,2016_Oct_04_1710,59.9865848,heterogeneity160929b,1,221221,,negative,moody,,,,,0,18,18,30,,,,,down,0,1.493393898,2016_Oct_04_1710,59.9865848,heterogeneity160929b,1,221221,,negative,boring,,,,,0,19,19,20,,,,,up,0,1.442912102,2016_Oct_04_1710,59.9865848,heterogeneity160929b,1,221221,,negative,childish,,,,,0,20,20,29,,,,,down,0,1.39240098,2016_Oct_04_1710,59.9865848,heterogeneity160929b,1,221221,,positive,inventive,,,,,0,21,21,18,,,,,down,0,1.258929014,2016_Oct_04_1710,59.9865848,heterogeneity160929b,1,221221,,positive,thrifty,,,,,0,22,22,2,,,,,down,0,1.442677021,2016_Oct_04_1710,59.9865848,heterogeneity160929b,1,221221,,positive,tender,,,,,0,23,23,6,,,,,up,0,1.926578999,2016_Oct_04_1710,59.9865848,heterogeneity160929b,1,221221,,positive,tidy,,,,,0,24,24,4,,,,,up,0,0.910909891,2016_Oct_04_1710,59.9865848,heterogeneity160929b,1,221221,,positive,idealistic,,,,,0,25,25,3,,,,,up,0,1.422923088,2016_Oct_04_1710,59.9865848,heterogeneity160929b,1,221221,,positive,brilliant,,,,,0,26,26,12,,,,,down,0,1.242238998,2016_Oct_04_1710,59.9865848,heterogeneity160929b,1,221221,,negative,withdrawn,,,,,0,27,27,38,,,,,up,0,1.658904076,2016_Oct_04_1710,59.9865848,heterogeneity160929b,1,221221,,positive,neat,,,,,0,28,28,5,,,,,up,0,1.011132002,2016_Oct_04_1710,59.9865848,heterogeneity160929b,1,221221,,negative,stubborn,,,,,0,29,29,39,,,,,up,0,1.275840998,2016_Oct_04_1710,59.9865848,heterogeneity160929b,1,221221,,positive,orderly,,,,,0,30,30,14,,,,,up,0,0.842937946,2016_Oct_04_1710,59.9865848,heterogeneity160929b,1,221221,,positive,ambitious,,,,,0,31,31,10,,,,,up,0,0.975550175,2016_Oct_04_1710,59.9865848,heterogeneity160929b,1,221221,,positive,talented,,,,,0,32,32,0,,,,,down,0,1.642147064,2016_Oct_04_1710,59.9865848,heterogeneity160929b,1,221221,,negative,forgetful,,,,,0,33,33,31,,,,,down,0,1.525475025,2016_Oct_04_1710,59.9865848,heterogeneity160929b,1,221221,,positive,proud,,,,,0,34,34,11,,,,,up,0,1.210244179,2016_Oct_04_1710,59.9865848,heterogeneity160929b,1,221221,,positive,trusting,,,,,0,35,35,8,,,,,up,0,1.025934935,2016_Oct_04_1710,59.9865848,heterogeneity160929b,1,221221,,negative,gullible,,,,,0,36,36,34,,,,,up,0,1.275892973,2016_Oct_04_1710,59.9865848,heterogeneity160929b,1,221221,,negative,clumsy,,,,,0,37,37,23,,,,,up,0,1.44313693,2016_Oct_04_1710,59.9865848,heterogeneity160929b,1,221221,,negative,impulsive,,,,,0,38,38,21,,,,,up,0,1.658541918,2016_Oct_04_1710,59.9865848,heterogeneity160929b,1,221221,,positive,wise,,,,,0,39,39,19,,,,,up,0,0.910953999,2016_Oct_04_1710,59.9865848,heterogeneity160929b,1,221222,,negative,withdrawn,,,,,0,0,0,38,,,,,down,0,1.025910139,2016_Oct_04_1730,59.97397598,heterogeneity160929b,1,222222,,positive,confident,,,,,0,1,1,7,,,,,up,0,0.792237043,2016_Oct_04_1730,59.97397598,heterogeneity160929b,1,222222,,positive,trusting,,,,,0,2,2,8,,,,,up,0,0.858887196,2016_Oct_04_1730,59.97397598,heterogeneity160929b,1,222222,,negative,gullible,,,,,0,3,3,34,,,,,down,0,1.209042072,2016_Oct_04_1730,59.97397598,heterogeneity160929b,1,222222,,positive,inventive,,,,,0,4,4,18,,,,,up,0,1.17550993,2016_Oct_04_1730,59.97397598,heterogeneity160929b,1,222222,,positive,tender,,,,,0,5,5,6,,,,,down,0,1.243238926,2016_Oct_04_1730,59.97397598,heterogeneity160929b,1,222222,,negative,fearful,,,,,0,6,6,24,,,,,down,0,1.343000889,2016_Oct_04_1730,59.97397598,heterogeneity160929b,1,222222,,positive,artistic,,,,,0,7,7,9,,,,,down,0,1.225975037,2016_Oct_04_1730,59.97397598,heterogeneity160929b,1,222222,,negative,cynical,,,,,0,8,8,37,,,,,down,0,1.475699186,2016_Oct_04_1730,59.97397598,heterogeneity160929b,1,222222,,positive,courageous,,,,,0,9,9,15,,,,,up,0,0.724872112,2016_Oct_04_1730,59.97397598,heterogeneity160929b,1,222222,,negative,inhibited,,,,,0,10,10,25,,,,,down,0,1.475407839,2016_Oct_04_1730,59.97397598,heterogeneity160929b,1,222222,,negative,worrying,,,,,0,11,11,32,,,,,up,0,1.092560053,2016_Oct_04_1730,59.97397598,heterogeneity160929b,1,222222,,negative,tense,,,,,0,12,12,26,,,,,up,0,1.776128054,2016_Oct_04_1730,59.97397598,heterogeneity160929b,1,222222,,negative,stubborn,,,,,0,13,13,39,,,,,up,0,1.37562108,2016_Oct_04_1730,59.97397598,heterogeneity160929b,1,222222,,positive,brilliant,,,,,0,14,14,12,,,,,up,0,0.742214918,2016_Oct_04_1730,59.97397598,heterogeneity160929b,1,222222,,positive,outgoing,,,,,0,15,15,17,,,,,down,0,1.209107876,2016_Oct_04_1730,59.97397598,heterogeneity160929b,1,222222,,positive,ambitious,,,,,0,16,16,10,,,,,up,0,0.658806801,2016_Oct_04_1730,59.97397598,heterogeneity160929b,1,222222,,negative,moody,,,,,0,17,17,30,,,,,up,0,0.960172892,2016_Oct_04_1730,59.97397598,heterogeneity160929b,1,222222,,positive,neat,,,,,0,18,18,5,,,,,up,0,0.660830021,2016_Oct_04_1730,59.97397598,heterogeneity160929b,1,222222,,positive,wise,,,,,0,19,19,19,,,,,up,0,0.644026995,2016_Oct_04_1730,59.97397598,heterogeneity160929b,1,222222,,negative,childish,,,,,0,20,20,29,,,,,down,0,1.209303141,2016_Oct_04_1730,59.97397598,heterogeneity160929b,1,222222,,positive,disciplined,,,,,0,21,21,1,,,,,up,0,0.858337164,2016_Oct_04_1730,59.97397598,heterogeneity160929b,1,222222,,positive,tidy,,,,,0,22,22,4,,,,,up,0,0.810975075,2016_Oct_04_1730,59.97397598,heterogeneity160929b,1,222222,,negative,antisocial,,,,,0,23,23,33,,,,,up,0,1.441823006,2016_Oct_04_1730,59.97397598,heterogeneity160929b,1,222222,,positive,talented,,,,,0,24,24,0,,,,,up,0,0.959349155,2016_Oct_04_1730,59.97397598,heterogeneity160929b,1,222222,,positive,enthusiastic,,,,,0,25,25,16,,,,,up,0,0.705557823,2016_Oct_04_1730,59.97397598,heterogeneity160929b,1,222222,,positive,orderly,,,,,0,26,26,14,,,,,up,0,0.842880964,2016_Oct_04_1730,59.97397598,heterogeneity160929b,1,222222,,negative,messy,,,,,0,27,27,36,,,,,down,0,0.89362812,2016_Oct_04_1730,59.97397598,heterogeneity160929b,1,222222,,negative,forgetful,,,,,0,28,28,31,,,,,up,0,1.491522074,2016_Oct_04_1730,59.97397598,heterogeneity160929b,1,222222,,negative,boring,,,,,0,29,29,20,,,,,down,0,1.343245983,2016_Oct_04_1730,59.97397598,heterogeneity160929b,1,222222,,positive,persistent,,,,,0,30,30,13,,,,,up,0,0.991967916,2016_Oct_04_1730,59.97397598,heterogeneity160929b,1,222222,,negative,irritable,,,,,0,31,31,27,,,,,down,0,1.358577013,2016_Oct_04_1730,59.97397598,heterogeneity160929b,1,222222,,negative,impulsive,,,,,0,32,32,21,,,,,up,0,1.274959087,2016_Oct_04_1730,59.97397598,heterogeneity160929b,1,222222,,negative,timid,,,,,0,33,33,28,,,,,down,0,0.860112906,2016_Oct_04_1730,59.97397598,heterogeneity160929b,1,222222,,negative,insecure,,,,,0,34,34,22,,,,,up,0,1.709267139,2016_Oct_04_1730,59.97397598,heterogeneity160929b,1,222222,,positive,idealistic,,,,,0,35,35,3,,,,,up,0,1.191797972,2016_Oct_04_1730,59.97397598,heterogeneity160929b,1,222222,,negative,anxious,,,,,0,36,36,35,,,,,up,0,0.793051958,2016_Oct_04_1730,59.97397598,heterogeneity160929b,1,222222,,negative,clumsy,,,,,0,37,37,23,,,,,down,0,1.19324708,2016_Oct_04_1730,59.97397598,heterogeneity160929b,1,222222,,positive,proud,,,,,0,38,38,11,,,,,up,0,0.659780979,2016_Oct_04_1730,59.97397598,heterogeneity160929b,1,222222,,positive,thrifty,,,,,0,39,39,2,,,,,down,0,1.109615803,2016_Oct_04_1730,59.97397598,heterogeneity160929b,1,222223,,negative,withdrawn,,,,,0,0,0,38,,,,,down,0,0.959180832,2016_Oct_04_1741,60.02109315,heterogeneity160929b,1,223223,,negative,cynical,,,,,0,1,1,37,,,,,down,0,0.892184019,2016_Oct_04_1741,60.02109315,heterogeneity160929b,1,223223,,negative,inhibited,,,,,0,2,2,25,,,,,down,0,1.108469963,2016_Oct_04_1741,60.02109315,heterogeneity160929b,1,223223,,negative,tense,,,,,0,3,3,26,,,,,down,0,1.060216904,2016_Oct_04_1741,60.02109315,heterogeneity160929b,1,223223,,negative,impulsive,,,,,0,4,4,21,,,,,down,0,1.258837938,2016_Oct_04_1741,60.02109315,heterogeneity160929b,1,223223,,positive,disciplined,,,,,0,5,5,1,,,,,up,0,0.891479015,2016_Oct_04_1741,60.02109315,heterogeneity160929b,1,223223,,negative,gullible,,,,,0,6,6,34,,,,,down,0,0.909188986,2016_Oct_04_1741,60.02109315,heterogeneity160929b,1,223223,,negative,timid,,,,,0,7,7,28,,,,,down,0,1.275972128,2016_Oct_04_1741,60.02109315,heterogeneity160929b,1,223223,,positive,trusting,,,,,0,8,8,8,,,,,up,0,0.742314816,2016_Oct_04_1741,60.02109315,heterogeneity160929b,1,223223,,positive,courageous,,,,,0,9,9,15,,,,,up,0,0.774888992,2016_Oct_04_1741,60.02109315,heterogeneity160929b,1,223223,,negative,fearful,,,,,0,10,10,24,,,,,down,0,0.792320967,2016_Oct_04_1741,60.02109315,heterogeneity160929b,1,223223,,positive,inventive,,,,,0,11,11,18,,,,,up,0,0.825495958,2016_Oct_04_1741,60.02109315,heterogeneity160929b,1,223223,,positive,artistic,,,,,0,12,12,9,,,,,up,0,0.609388828,2016_Oct_04_1741,60.02109315,heterogeneity160929b,1,223223,,negative,moody,,,,,0,13,13,30,,,,,down,0,0.793740988,2016_Oct_04_1741,60.02109315,heterogeneity160929b,1,223223,,positive,tidy,,,,,0,14,14,4,,,,,down,0,0.9606359,2016_Oct_04_1741,60.02109315,heterogeneity160929b,1,223223,,positive,talented,,,,,0,15,15,0,,,,,up,0,0.676153898,2016_Oct_04_1741,60.02109315,heterogeneity160929b,1,223223,,negative,stubborn,,,,,0,16,16,39,,,,,down,0,1.192370892,2016_Oct_04_1741,60.02109315,heterogeneity160929b,1,223223,,negative,messy,,,,,0,17,17,36,,,,,down,0,0.776976824,2016_Oct_04_1741,60.02109315,heterogeneity160929b,1,223223,,positive,ambitious,,,,,0,18,18,10,,,,,up,0,0.758981943,2016_Oct_04_1741,60.02109315,heterogeneity160929b,1,223223,,positive,brilliant,,,,,0,19,19,12,,,,,up,0,0.675781012,2016_Oct_04_1741,60.02109315,heterogeneity160929b,1,223223,,negative,anxious,,,,,0,20,20,35,,,,,down,0,0.842428923,2016_Oct_04_1741,60.02109315,heterogeneity160929b,1,223223,,positive,enthusiastic,,,,,0,21,21,16,,,,,up,0,0.691028118,2016_Oct_04_1741,60.02109315,heterogeneity160929b,1,223223,,positive,persistent,,,,,0,22,22,13,,,,,up,0,0.77518487,2016_Oct_04_1741,60.02109315,heterogeneity160929b,1,223223,,positive,idealistic,,,,,0,23,23,3,,,,,up,0,0.741786003,2016_Oct_04_1741,60.02109315,heterogeneity160929b,1,223223,,positive,wise,,,,,0,24,24,19,,,,,up,0,0.727617979,2016_Oct_04_1741,60.02109315,heterogeneity160929b,1,223223,,positive,outgoing,,,,,0,25,25,17,,,,,up,0,0.709259987,2016_Oct_04_1741,60.02109315,heterogeneity160929b,1,223223,,positive,neat,,,,,0,26,26,5,,,,,up,0,0.825477123,2016_Oct_04_1741,60.02109315,heterogeneity160929b,1,223223,,negative,worrying,,,,,0,27,27,32,,,,,up,0,0.842504025,2016_Oct_04_1741,60.02109315,heterogeneity160929b,1,223223,,negative,antisocial,,,,,0,28,28,33,,,,,down,0,0.791889906,2016_Oct_04_1741,60.02109315,heterogeneity160929b,1,223223,,negative,boring,,,,,0,29,29,20,,,,,down,0,0.960078001,2016_Oct_04_1741,60.02109315,heterogeneity160929b,1,223223,,negative,forgetful,,,,,0,30,30,31,,,,,up,0,0.742112875,2016_Oct_04_1741,60.02109315,heterogeneity160929b,1,223223,,negative,insecure,,,,,0,31,31,22,,,,,down,0,0.892579079,2016_Oct_04_1741,60.02109315,heterogeneity160929b,1,223223,,positive,confident,,,,,0,32,32,7,,,,,up,0,0.642270803,2016_Oct_04_1741,60.02109315,heterogeneity160929b,1,223223,,positive,proud,,,,,0,33,33,11,,,,,up,0,0.676682949,2016_Oct_04_1741,60.02109315,heterogeneity160929b,1,223223,,negative,childish,,,,,0,34,34,29,,,,,down,0,0.825799942,2016_Oct_04_1741,60.02109315,heterogeneity160929b,1,223223,,negative,irritable,,,,,0,35,35,27,,,,,down,0,0.742174149,2016_Oct_04_1741,60.02109315,heterogeneity160929b,1,223223,,positive,orderly,,,,,0,36,36,14,,,,,up,0,0.842890024,2016_Oct_04_1741,60.02109315,heterogeneity160929b,1,223223,,positive,thrifty,,,,,0,37,37,2,,,,,down,0,0.842983961,2016_Oct_04_1741,60.02109315,heterogeneity160929b,1,223223,,negative,clumsy,,,,,0,38,38,23,,,,,down,0,0.859973907,2016_Oct_04_1741,60.02109315,heterogeneity160929b,1,223223,,positive,tender,,,,,0,39,39,6,,,,,up,0,0.859266043,2016_Oct_04_1741,60.02109315,heterogeneity160929b,1,223224,,negative,fearful,,,,,0,0,0,24,,,,,down,0,0.709767818,2016_Oct_04_1802,60.00924253,heterogeneity160929b,1,224224,,negative,childish,,,,,0,1,1,29,,,,,up,0,0.692532063,2016_Oct_04_1802,60.00924253,heterogeneity160929b,1,224224,,positive,orderly,,,,,0,2,2,14,,,,,down,0,0.692610979,2016_Oct_04_1802,60.00924253,heterogeneity160929b,1,224224,,positive,inventive,,,,,0,3,3,18,,,,,up,0,0.675531149,2016_Oct_04_1802,60.00924253,heterogeneity160929b,1,224224,,positive,wise,,,,,0,4,4,19,,,,,up,0,0.57772398,2016_Oct_04_1802,60.00924253,heterogeneity160929b,1,224224,,positive,confident,,,,,0,5,5,7,,,,,up,0,0.642108917,2016_Oct_04_1802,60.00924253,heterogeneity160929b,1,224224,,positive,artistic,,,,,0,6,6,9,,,,,down,0,0.575989962,2016_Oct_04_1802,60.00924253,heterogeneity160929b,1,224224,,positive,thrifty,,,,,0,7,7,2,,,,,down,0,0.526256084,2016_Oct_04_1802,60.00924253,heterogeneity160929b,1,224224,,positive,tidy,,,,,0,8,8,4,,,,,up,0,0.594089985,2016_Oct_04_1802,60.00924253,heterogeneity160929b,1,224224,,positive,courageous,,,,,0,9,9,15,,,,,up,0,0.758076906,2016_Oct_04_1802,60.00924253,heterogeneity160929b,1,224224,,negative,moody,,,,,0,10,10,30,,,,,up,0,0.810267925,2016_Oct_04_1802,60.00924253,heterogeneity160929b,1,224224,,negative,anxious,,,,,0,11,11,35,,,,,up,0,0.726358175,2016_Oct_04_1802,60.00924253,heterogeneity160929b,1,224224,,positive,idealistic,,,,,0,12,12,3,,,,,down,0,1.20854497,2016_Oct_04_1802,60.00924253,heterogeneity160929b,1,224224,,negative,tense,,,,,0,13,13,26,,,,,up,0,0.843548059,2016_Oct_04_1802,60.00924253,heterogeneity160929b,1,224224,,negative,irritable,,,,,0,14,14,27,,,,,down,0,1.041790962,2016_Oct_04_1802,60.00924253,heterogeneity160929b,1,224224,,negative,forgetful,,,,,0,15,15,31,,,,,down,0,1.108974218,2016_Oct_04_1802,60.00924253,heterogeneity160929b,1,224224,,negative,cynical,,,,,0,16,16,37,,,,,up,0,0.709623098,2016_Oct_04_1802,60.00924253,heterogeneity160929b,1,224224,,positive,disciplined,,,,,0,17,17,1,,,,,up,0,0.774891138,2016_Oct_04_1802,60.00924253,heterogeneity160929b,1,224224,,negative,boring,,,,,0,18,18,20,,,,,down,0,0.709807158,2016_Oct_04_1802,60.00924253,heterogeneity160929b,1,224224,,negative,clumsy,,,,,0,19,19,23,,,,,down,0,0.59322381,2016_Oct_04_1802,60.00924253,heterogeneity160929b,1,224224,,negative,stubborn,,,,,0,20,20,39,,,,,down,0,0.925483942,2016_Oct_04_1802,60.00924253,heterogeneity160929b,1,224224,,negative,withdrawn,,,,,0,21,21,38,,,,,up,0,0.792305946,2016_Oct_04_1802,60.00924253,heterogeneity160929b,1,224224,,negative,insecure,,,,,0,22,22,22,,,,,down,0,0.875960827,2016_Oct_04_1802,60.00924253,heterogeneity160929b,1,224224,,negative,gullible,,,,,0,23,23,34,,,,,down,0,0.659169912,2016_Oct_04_1802,60.00924253,heterogeneity160929b,1,224224,,positive,ambitious,,,,,0,24,24,10,,,,,up,0,0.708854914,2016_Oct_04_1802,60.00924253,heterogeneity160929b,1,224224,,positive,tender,,,,,0,25,25,6,,,,,down,0,0.626505136,2016_Oct_04_1802,60.00924253,heterogeneity160929b,1,224224,,positive,proud,,,,,0,26,26,11,,,,,up,0,0.724874973,2016_Oct_04_1802,60.00924253,heterogeneity160929b,1,224224,,positive,enthusiastic,,,,,0,27,27,16,,,,,up,0,0.641152859,2016_Oct_04_1802,60.00924253,heterogeneity160929b,1,224224,,positive,trusting,,,,,0,28,28,8,,,,,up,0,0.776046991,2016_Oct_04_1802,60.00924253,heterogeneity160929b,1,224224,,negative,antisocial,,,,,0,29,29,33,,,,,down,0,0.708038092,2016_Oct_04_1802,60.00924253,heterogeneity160929b,1,224224,,negative,messy,,,,,0,30,30,36,,,,,down,0,0.67703414,2016_Oct_04_1802,60.00924253,heterogeneity160929b,1,224224,,positive,outgoing,,,,,0,31,31,17,,,,,up,0,0.692505836,2016_Oct_04_1802,60.00924253,heterogeneity160929b,1,224224,,positive,persistent,,,,,0,32,32,13,,,,,up,0,0.724755049,2016_Oct_04_1802,60.00924253,heterogeneity160929b,1,224224,,negative,worrying,,,,,0,33,33,32,,,,,down,0,0.725804806,2016_Oct_04_1802,60.00924253,heterogeneity160929b,1,224224,,negative,impulsive,,,,,0,34,34,21,,,,,up,0,0.659009933,2016_Oct_04_1802,60.00924253,heterogeneity160929b,1,224224,,negative,inhibited,,,,,0,35,35,25,,,,,up,0,0.99229598,2016_Oct_04_1802,60.00924253,heterogeneity160929b,1,224224,,negative,timid,,,,,0,36,36,28,,,,,up,0,0.910303831,2016_Oct_04_1802,60.00924253,heterogeneity160929b,1,224224,,positive,neat,,,,,0,37,37,5,,,,,up,0,0.844370842,2016_Oct_04_1802,60.00924253,heterogeneity160929b,1,224224,,positive,talented,,,,,0,38,38,0,,,,,down,0,1.092612028,2016_Oct_04_1802,60.00924253,heterogeneity160929b,1,224224,,positive,brilliant,,,,,0,39,39,12,,,,,down,0,0.925112963,2016_Oct_04_1802,60.00924253,heterogeneity160929b,1,224226,,negative,timid,,,,,0,0,0,28,,,,,down,0,0.993910074,2016_Oct_05_1206,59.98478322,heterogeneity160929b,1,226226,,negative,irritable,,,,,0,1,1,27,,,,,up,0,1.058816195,2016_Oct_05_1206,59.98478322,heterogeneity160929b,1,226226,,negative,moody,,,,,0,2,2,30,,,,,up,0,0.993286133,2016_Oct_05_1206,59.98478322,heterogeneity160929b,1,226226,,positive,thrifty,,,,,0,3,3,2,,,,,down,0,1.426046848,2016_Oct_05_1206,59.98478322,heterogeneity160929b,1,226226,,negative,messy,,,,,0,4,4,36,,,,,up,0,1.126826048,2016_Oct_05_1206,59.98478322,heterogeneity160929b,1,226226,,positive,ambitious,,,,,0,5,5,10,,,,,up,0,0.992300987,2016_Oct_05_1206,59.98478322,heterogeneity160929b,1,226226,,positive,enthusiastic,,,,,0,6,6,16,,,,,up,0,0.874475956,2016_Oct_05_1206,59.98478322,heterogeneity160929b,1,226226,,negative,clumsy,,,,,0,7,7,23,,,,,up,0,1.426367044,2016_Oct_05_1206,59.98478322,heterogeneity160929b,1,226226,,negative,gullible,,,,,0,8,8,34,,,,,down,0,1.291549921,2016_Oct_05_1206,59.98478322,heterogeneity160929b,1,226226,,positive,talented,,,,,0,9,9,0,,,,,up,0,0.809196949,2016_Oct_05_1206,59.98478322,heterogeneity160929b,1,226226,,negative,insecure,,,,,0,10,10,22,,,,,down,0,1.242518902,2016_Oct_05_1206,59.98478322,heterogeneity160929b,1,226226,,positive,disciplined,,,,,0,11,11,1,,,,,down,0,1.241552114,2016_Oct_05_1206,59.98478322,heterogeneity160929b,1,226226,,negative,worrying,,,,,0,12,12,32,,,,,up,0,0.89248991,2016_Oct_05_1206,59.98478322,heterogeneity160929b,1,226226,,negative,cynical,,,,,0,13,13,37,,,,,down,0,0.859598875,2016_Oct_05_1206,59.98478322,heterogeneity160929b,1,226226,,positive,tidy,,,,,0,14,14,4,,,,,up,0,0.893738031,2016_Oct_05_1206,59.98478322,heterogeneity160929b,1,226226,,negative,inhibited,,,,,0,15,15,25,,,,,down,0,1.875415802,2016_Oct_05_1206,59.98478322,heterogeneity160929b,1,226226,,positive,orderly,,,,,0,16,16,14,,,,,down,0,1.342679977,2016_Oct_05_1206,59.98478322,heterogeneity160929b,1,226226,,positive,neat,,,,,0,17,17,5,,,,,down,0,1.060986996,2016_Oct_05_1206,59.98478322,heterogeneity160929b,1,226226,,negative,impulsive,,,,,0,18,18,21,,,,,up,0,1.008727074,2016_Oct_05_1206,59.98478322,heterogeneity160929b,1,226226,,positive,artistic,,,,,0,19,19,9,,,,,up,0,0.759286165,2016_Oct_05_1206,59.98478322,heterogeneity160929b,1,226226,,negative,tense,,,,,0,20,20,26,,,,,up,0,1.943063974,2016_Oct_05_1206,59.98478322,heterogeneity160929b,1,226226,,positive,tender,,,,,0,21,21,6,,,,,down,0,1.209913015,2016_Oct_05_1206,59.98478322,heterogeneity160929b,1,226226,,negative,fearful,,,,,0,22,22,24,,,,,up,0,1.359633923,2016_Oct_05_1206,59.98478322,heterogeneity160929b,1,226226,,positive,trusting,,,,,0,23,23,8,,,,,down,0,2.225824118,2016_Oct_05_1206,59.98478322,heterogeneity160929b,1,226226,,negative,withdrawn,,,,,0,24,24,38,,,,,up,0,1.008903027,2016_Oct_05_1206,59.98478322,heterogeneity160929b,1,226226,,negative,stubborn,,,,,0,25,25,39,,,,,up,0,1.159100056,2016_Oct_05_1206,59.98478322,heterogeneity160929b,1,226226,,negative,antisocial,,,,,0,26,26,33,,,,,up,0,1.539382935,2016_Oct_05_1206,59.98478322,heterogeneity160929b,1,226226,,positive,inventive,,,,,0,27,27,18,,,,,up,0,1.108776093,2016_Oct_05_1206,59.98478322,heterogeneity160929b,1,226226,,negative,forgetful,,,,,0,28,28,31,,,,,down,0,0.942483187,2016_Oct_05_1206,59.98478322,heterogeneity160929b,1,226226,,positive,proud,,,,,0,29,29,11,,,,,up,0,1.060367107,2016_Oct_05_1206,59.98478322,heterogeneity160929b,1,226226,,positive,brilliant,,,,,0,30,30,12,,,,,up,0,0.925653934,2016_Oct_05_1206,59.98478322,heterogeneity160929b,1,226