id,valence,word,trial_num,trial_index,key,rt,date101,positive,confident,0,4,up,1.042244911,2016_Apr_15_1541101,negative,conventional,1,24,down,1.591037989,2016_Apr_15_1541101,positive,brilliant,2,2,up,1.608522892,2016_Apr_15_1541101,positive,sophisticated,3,17,up,0.690616846,2016_Apr_15_1541101,positive,proud,4,15,up,0.709938049,2016_Apr_15_1541101,negative,anxious,5,21,up,1.008529902,2016_Apr_15_1541101,negative,moody,6,33,up,0.726993084,2016_Apr_15_1541101,positive,frank,7,10,up,1.276802063,2016_Apr_15_1541101,negative,stubborn,8,36,up,0.825145006,2016_Apr_15_1541101,positive,decisive,9,7,up,0.859414101,2016_Apr_15_1541101,positive,artistic,10,1,down,1.24222517,2016_Apr_15_1541101,negative,critical,11,25,up,0.825579166,2016_Apr_15_1541101,negative,cynical,12,26,up,0.826169014,2016_Apr_15_1541101,negative,insecure,13,30,down,2.858412981,2016_Apr_15_1541101,positive,moralistic,14,11,up,1.474850893,2016_Apr_15_1541101,negative,authoritative,15,22,up,0.890775919,2016_Apr_15_1541101,positive,quick,16,16,up,1.60718298,2016_Apr_15_1541101,positive,candid,17,3,up,1.45913291,2016_Apr_15_1541101,negative,clumsy,18,23,down,1.109899998,2016_Apr_15_1541101,negative,worrying,19,39,up,0.892453909,2016_Apr_15_1541101,positive,obedient,20,13,up,1.392452955,2016_Apr_15_1541101,negative,antisocial,21,20,down,1.325103998,2016_Apr_15_1541101,positive,adventurous,22,0,up,0.907207012,2016_Apr_15_1541101,positive,enthusiastic,23,9,up,1.591068983,2016_Apr_15_1541101,positive,outgoing,24,14,up,0.87558794,2016_Apr_15_1541101,positive,courageous,25,5,up,0.675254822,2016_Apr_15_1541101,negative,shy,26,35,down,1.077615976,2016_Apr_15_1541101,negative,emotional,27,27,up,1.091971874,2016_Apr_15_1541101,positive,daring,28,6,up,1.290825844,2016_Apr_15_1541101,negative,withdrawn,29,38,down,1.258860826,2016_Apr_15_1541101,negative,hesitant,30,28,down,1.159436941,2016_Apr_15_1541101,negative,timid,31,37,down,0.993403912,2016_Apr_15_1541101,negative,rebellious,32,34,up,0.90849185,2016_Apr_15_1541101,negative,messy,33,32,down,0.976912022,2016_Apr_15_1541101,negative,indecisive,34,29,down,3.440862894,2016_Apr_15_1541101,positive,enterprising,35,8,up,0.907890081,2016_Apr_15_1541101,positive,neat,36,12,up,0.877694845,2016_Apr_15_1541101,positive,tidy,37,19,up,1.044276953,2016_Apr_15_1541101,positive,tender,38,18,down,6.242326021,2016_Apr_15_1541101,negative,lazy,39,31,down,0.97522378,2016_Apr_15_1541102,negative,worrying,0,39,up,0.892897129,2016_Apr_15_1606102,positive,neat,1,12,up,0.910236835,2016_Apr_15_1606102,negative,hesitant,2,28,down,1.159126997,2016_Apr_15_1606102,negative,moody,3,33,up,0.976701975,2016_Apr_15_1606102,negative,conventional,4,24,down,1.507627964,2016_Apr_15_1606102,positive,enthusiastic,5,9,up,0.791231155,2016_Apr_15_1606102,positive,tidy,6,19,up,1.51060009,2016_Apr_15_1606102,negative,timid,7,37,down,0.860238075,2016_Apr_15_1606102,positive,brilliant,8,2,up,0.925490856,2016_Apr_15_1606102,negative,stubborn,9,36,up,1.142430067,2016_Apr_15_1606102,positive,obedient,10,13,up,1.958994865,2016_Apr_15_1606102,positive,enterprising,11,8,up,2.074401855,2016_Apr_15_1606102,negative,cynical,12,26,down,1.742294073,2016_Apr_15_1606102,positive,confident,13,4,down,1.191992998,2016_Apr_15_1606102,negative,antisocial,14,20,down,0.791553974,2016_Apr_15_1606102,positive,moralistic,15,11,up,2.125001907,2016_Apr_15_1606102,positive,artistic,16,1,up,0.692398071,2016_Apr_15_1606102,positive,frank,17,10,up,1.526755095,2016_Apr_15_1606102,positive,outgoing,18,14,up,0.575626135,2016_Apr_15_1606102,negative,authoritative,19,22,up,1.007349014,2016_Apr_15_1606102,positive,proud,20,15,up,0.926851034,2016_Apr_15_1606102,negative,critical,21,25,up,1.059086084,2016_Apr_15_1606102,positive,adventurous,22,0,up,1.824850082,2016_Apr_15_1606102,negative,rebellious,23,34,down,0.974157095,2016_Apr_15_1606102,negative,emotional,24,27,up,0.742297173,2016_Apr_15_1606102,positive,candid,25,3,down,1.843008995,2016_Apr_15_1606102,negative,messy,26,32,down,0.842953205,2016_Apr_15_1606102,negative,anxious,27,21,up,1.076378822,2016_Apr_15_1606102,positive,sophisticated,28,17,down,3.538970947,2016_Apr_15_1606102,negative,insecure,29,30,up,0.856948853,2016_Apr_15_1606102,positive,courageous,30,5,down,2.374872923,2016_Apr_15_1606102,negative,clumsy,31,23,down,0.793176174,2016_Apr_15_1606102,negative,shy,32,35,down,0.827162981,2016_Apr_15_1606102,negative,withdrawn,33,38,down,0.775661945,2016_Apr_15_1606102,positive,daring,34,6,down,1.009832859,2016_Apr_15_1606102,negative,lazy,35,31,up,2.507624865,2016_Apr_15_1606102,positive,decisive,36,7,down,1.359069109,2016_Apr_15_1606102,negative,indecisive,37,29,up,0.741905928,2016_Apr_15_1606102,positive,quick,38,16,down,5.407166958,2016_Apr_15_1606102,positive,tender,39,18,up,0.99318409,2016_Apr_15_1606103,negative,anxious,0,21,down,0.926426888,2016_Apr_15_1736103,negative,lazy,1,31,down,0.675270081,2016_Apr_15_1736103,negative,indecisive,2,29,up,0.941493034,2016_Apr_15_1736103,negative,stubborn,3,36,up,1.092684031,2016_Apr_15_1736103,negative,worrying,4,39,down,0.942425013,2016_Apr_15_1736103,negative,timid,5,37,down,0.875311852,2016_Apr_15_1736103,negative,hesitant,6,28,down,1.192394972,2016_Apr_15_1736103,positive,moralistic,7,11,up,0.841837883,2016_Apr_15_1736103,positive,outgoing,8,14,up,0.95926404,2016_Apr_15_1736103,negative,cynical,9,26,down,0.826148987,2016_Apr_15_1736103,positive,sophisticated,10,17,up,0.840453148,2016_Apr_15_1736103,negative,conventional,11,24,down,1.157281876,2016_Apr_15_1736103,positive,neat,12,12,down,1.210829973,2016_Apr_15_1736103,negative,antisocial,13,20,down,0.858374119,2016_Apr_15_1736103,positive,adventurous,14,0,up,0.608146906,2016_Apr_15_1736103,positive,confident,15,4,up,0.709413052,2016_Apr_15_1736103,negative,authoritative,16,22,up,0.724192858,2016_Apr_15_1736103,negative,insecure,17,30,down,1.09225893,2016_Apr_15_1736103,negative,shy,18,35,down,0.994323015,2016_Apr_15_1736103,negative,critical,19,25,up,1.492488146,2016_Apr_15_1736103,negative,messy,20,32,up,1.043532848,2016_Apr_15_1736103,positive,enthusiastic,21,9,up,0.757698059,2016_Apr_15_1736103,positive,daring,22,6,up,0.843223095,2016_Apr_15_1736103,positive,candid,23,3,down,1.176234961,2016_Apr_15_1736103,positive,enterprising,24,8,down,1.424529076,2016_Apr_15_1736103,negative,rebellious,25,34,down,1.058671951,2016_Apr_15_1736103,positive,frank,26,10,down,1.043518782,2016_Apr_15_1736103,positive,obedient,27,13,up,1.025707006,2016_Apr_15_1736103,positive,tidy,28,19,down,0.827113152,2016_Apr_15_1736103,negative,emotional,29,27,up,0.773205042,2016_Apr_15_1736103,positive,proud,30,15,up,0.643161774,2016_Apr_15_1736103,positive,courageous,31,5,up,1.791623116,2016_Apr_15_1736103,positive,tender,32,18,down,0.909924984,2016_Apr_15_1736103,positive,artistic,33,1,up,0.609287977,2016_Apr_15_1736103,positive,quick,34,16,up,1.024389982,2016_Apr_15_1736103,negative,moody,35,33,up,0.82621789,2016_Apr_15_1736103,positive,decisive,36,7,down,1.059190035,2016_Apr_15_1736103,negative,clumsy,37,23,down,0.893093109,2016_Apr_15_1736103,negative,withdrawn,38,38,down,0.792213917,2016_Apr_15_1736103,positive,brilliant,39,2,up,0.708932877,2016_Apr_15_1736104,positive,artistic,0,1,up,1.059319019,2016_Apr_19_1507104,positive,courageous,1,5,up,0.774639845,2016_Apr_19_1507104,positive,adventurous,2,0,up,1.208363056,2016_Apr_19_1507104,positive,brilliant,3,2,up,0.858873129,2016_Apr_19_1507104,positive,tender,4,18,up,3.559342861,2016_Apr_19_1507104,positive,neat,5,12,up,0.960852861,2016_Apr_19_1507104,positive,confident,6,4,up,0.85854578,2016_Apr_19_1507104,positive,tidy,7,19,up,0.97756505,2016_Apr_19_1507104,negative,timid,8,37,down,0.909941912,2016_Apr_19_1507104,negative,shy,9,35,down,0.744255066,2016_Apr_19_1507104,negative,indecisive,10,29,down,1.058439016,2016_Apr_19_1507104,positive,obedient,11,13,down,2.525638103,2016_Apr_19_1507104,negative,stubborn,12,36,up,1.375541925,2016_Apr_19_1507104,negative,anxious,13,21,down,1.109361172,2016_Apr_19_1507104,positive,decisive,14,7,up,1.159347057,2016_Apr_19_1507104,positive,moralistic,15,11,down,1.825197935,2016_Apr_19_1507104,positive,quick,16,16,up,0.774390221,2016_Apr_19_1507104,negative,cynical,17,26,up,0.975708008,2016_Apr_19_1507104,negative,antisocial,18,20,down,1.825190067,2016_Apr_19_1507104,negative,critical,19,25,up,0.925834894,2016_Apr_19_1507104,negative,moody,20,33,up,0.927042961,2016_Apr_19_1507104,positive,enthusiastic,21,9,up,0.640912056,2016_Apr_19_1507104,negative,emotional,22,27,down,0.825403929,2016_Apr_19_1507104,positive,candid,23,3,up,0.976353884,2016_Apr_19_1507104,positive,proud,24,15,up,0.710382938,2016_Apr_19_1507104,negative,messy,25,32,down,1.093439102,2016_Apr_19_1507104,negative,hesitant,26,28,down,3.992191076,2016_Apr_19_1507104,positive,sophisticated,27,17,up,0.69035387,2016_Apr_19_1507104,positive,outgoing,28,14,down,1.392402887,2016_Apr_19_1507104,negative,clumsy,29,23,down,1.024304152,2016_Apr_19_1507104,positive,daring,30,6,up,1.126527071,2016_Apr_19_1507104,negative,withdrawn,31,38,down,1.275474787,2016_Apr_19_1507104,negative,rebellious,32,34,down,1.041166067,2016_Apr_19_1507104,positive,enterprising,33,8,up,2.657596827,2016_Apr_19_1507104,positive,frank,34,10,up,0.726861,2016_Apr_19_1507104,negative,authoritative,35,22,up,0.856562853,2016_Apr_19_1507104,negative,worrying,36,39,up,1.475883007,2016_Apr_19_1507104,negative,insecure,37,30,down,0.89249301,2016_Apr_19_1507104,negative,lazy,38,31,down,1.275174856,2016_Apr_19_1507104,negative,conventional,39,24,down,1.074601173,2016_Apr_19_1507105,negative,stubborn,0,36,up,0.709408998,2016_Apr_19_1644105,positive,tender,1,18,up,0.709541798,2016_Apr_19_1644105,negative,timid,2,37,up,0.543305874,2016_Apr_19_1644105,negative,indecisive,3,29,down,1.240983963,2016_Apr_19_1644105,negative,insecure,4,30,down,0.991981983,2016_Apr_19_1644105,positive,neat,5,12,up,0.694214106,2016_Apr_19_1644105,positive,proud,6,15,up,0.943166971,2016_Apr_19_1644105,negative,worrying,7,39,up,1.292657137,2016_Apr_19_1644105,positive,confident,8,4,up,0.775574923,2016_Apr_19_1644105,negative,emotional,9,27,up,0.659065008,2016_Apr_19_1644105,positive,decisive,10,7,up,0.725917101,2016_Apr_19_1644105,negative,rebellious,11,34,down,1.025080919,2016_Apr_19_1644105,positive,frank,12,10,up,0.793318033,2016_Apr_19_1644105,negative,moody,13,33,down,1.543483019,2016_Apr_19_1644105,negative,conventional,14,24,up,0.991040945,2016_Apr_19_1644105,negative,cynical,15,26,up,0.792895079,2016_Apr_19_1644105,negative,antisocial,16,20,down,0.941679001,2016_Apr_19_1644105,negative,lazy,17,31,down,0.708692074,2016_Apr_19_1644105,positive,courageous,18,5,up,0.674746037,2016_Apr_19_1644105,negative,critical,19,25,up,1.025820971,2016_Apr_19_1644105,positive,sophisticated,20,17,up,0.640573978,2016_Apr_19_1644105,positive,obedient,21,13,up,0.692520142,2016_Apr_19_1644105,positive,outgoing,22,14,up,0.959256887,2016_Apr_19_1644105,positive,moralistic,23,11,up,0.691598892,2016_Apr_19_1644105,positive,enterprising,24,8,down,1.007707119,2016_Apr_19_1644105,positive,brilliant,25,2,up,0.541651964,2016_Apr_19_1644105,positive,adventurous,26,0,up,0.491651058,2016_Apr_19_1644105,negative,messy,27,32,up,0.376922131,2016_Apr_19_1644105,negative,hesitant,28,28,down,0.925900936,2016_Apr_19_1644105,negative,withdrawn,29,38,down,0.873159885,2016_Apr_19_1644105,negative,clumsy,30,23,down,0.676594973,2016_Apr_19_1644105,positive,enthusiastic,31,9,up,0.924669027,2016_Apr_19_1644105,positive,tidy,32,19,up,1.011082888,2016_Apr_19_1644105,positive,daring,33,6,down,0.843288183,2016_Apr_19_1644105,negative,anxious,34,21,up,1.059514999,2016_Apr_19_1644105,positive,candid,35,3,up,0.976456881,2016_Apr_19_1644105,positive,quick,36,16,up,0.840949059,2016_Apr_19_1644105,positive,artistic,37,1,up,0.675886154,2016_Apr_19_1644105,negative,shy,38,35,up,0.777801037,2016_Apr_19_1644105,negative,authoritative,39,22,up,0.740962982,2016_Apr_19_1644106,positive,confident,0,4,up,0.875365973,2016_Apr_20_1506106,negative,lazy,1,31,down,2.057814121,2016_Apr_20_1506106,negative,cynical,2,26,down,1.676197052,2016_Apr_20_1506106,negative,rebellious,3,34,up,1.374794006,2016_Apr_20_1506106,negative,critical,4,25,up,0.942497015,2016_Apr_20_1506106,negative,antisocial,5,20,down,1.291237116,2016_Apr_20_1506106,negative,authoritative,6,22,up,1.573644161,2016_Apr_20_1506106,positive,brilliant,7,2,down,2.358639956,2016_Apr_20_1506106,negative,messy,8,32,up,0.976601124,2016_Apr_20_1506106,positive,candid,9,3,up,0.926410913,2016_Apr_20_1506106,negative,conventional,10,24,down,2.02383709,2016_Apr_20_1506106,negative,shy,11,35,up,0.944291115,2016_Apr_20_1506106,negative,moody,12,33,up,1.293463945,2016_Apr_20_1506106,positive,daring,13,6,up,0.892668009,2016_Apr_20_1506106,negative,worrying,14,39,down,1.159271002,2016_Apr_20_1506106,positive,courageous,15,5,up,0.925163031,2016_Apr_20_1506106,positive,neat,16,12,up,1.060574055,2016_Apr_20_1506106,positive,outgoing,17,14,up,0.942416906,2016_Apr_20_1506106,positive,tender,18,18,up,0.959285021,2016_Apr_20_1506106,positive,adventurous,19,0,up,0.924987078,2016_Apr_20_1506106,positive,quick,20,16,up,0.807729959,2016_Apr_20_1506106,negative,anxious,21,21,down,1.042813063,2016_Apr_20_1506106,positive,obedient,22,13,down,2.075210094,2016_Apr_20_1506106,negative,hesitant,23,28,up,1.975627899,2016_Apr_20_1506106,negative,withdrawn,24,38,down,1.008804798,2016_Apr_20_1506106,negative,stubborn,25,36,down,1.909193039,2016_Apr_20_1506106,positive,moralistic,26,11,up,2.008318901,2016_Apr_20_1506106,negative,insecure,27,30,down,1.075740099,2016_Apr_20_1506106,negative,timid,28,37,down,0.974658966,2016_Apr_20_1506106,positive,tidy,29,19,up,2.477135897,2016_Apr_20_1506106,positive,frank,30,10,up,0.860342026,2016_Apr_20_1506106,positive,enthusiastic,31,9,up,0.957790852,2016_Apr_20_1506106,negative,indecisive,32,29,down,2.808331966,2016_Apr_20_1506106,positive,sophisticated,33,17,up,1.857285023,2016_Apr_20_1506106,positive,decisive,34,7,up,2.141438007,2016_Apr_20_1506106,negative,emotional,35,27,up,0.975710154,2016_Apr_20_1506106,positive,artistic,36,1,up,0.759137154,2016_Apr_20_1506106,positive,proud,37,15,up,0.943631887,2016_Apr_20_1506106,positive,enterprising,38,8,up,1.724418163,2016_Apr_20_1506106,negative,clumsy,39,23,up,1.042748928,2016_Apr_20_1506107,positive,adventurous,0,0,up,1.841740131,2016_Apr_21_1505107,positive,tidy,1,19,up,0.877434969,2016_Apr_21_1505107,positive,confident,2,4,up,1.008886099,2016_Apr_21_1505107,positive,candid,3,3,up,0.743269205,2016_Apr_21_1505107,negative,antisocial,4,20,down,1.174971819,2016_Apr_21_1505107,positive,outgoing,5,14,up,0.909229994,2016_Apr_21_1505107,negative,indecisive,6,29,up,1.074248075,2016_Apr_21_1505107,negative,messy,7,32,down,0.976624966,2016_Apr_21_1505107,positive,courageous,8,5,up,6.424571037,2016_Apr_21_1505107,positive,obedient,9,13,up,0.8093009,2016_Apr_21_1505107,negative,critical,10,25,up,1.225162983,2016_Apr_21_1505107,positive,quick,11,16,down,2.973669052,2016_Apr_21_1505107,negative,moody,12,33,up,1.010277987,2016_Apr_21_1505107,negative,shy,13,35,down,1.477664948,2016_Apr_21_1505107,negative,rebellious,14,34,down,1.158459902,2016_Apr_21_1505107,positive,frank,15,10,up,1.226819038,2016_Apr_21_1505107,negative,authoritative,16,22,up,1.257348061,2016_Apr_21_1505107,negative,conventional,17,24,up,1.740537167,2016_Apr_21_1505107,positive,proud,18,15,up,0.726927042,2016_Apr_21_1505107,positive,enthusiastic,19,9,up,0.624658108,2016_Apr_21_1505107,positive,neat,20,12,up,0.577549934,2016_Apr_21_1505107,negative,worrying,21,39,up,0.859163046,2016_Apr_21_1505107,negative,cynical,22,26,down,1.35943985,2016_Apr_21_1505107,positive,tender,23,18,up,1.076107979,2016_Apr_21_1505107,negative,insecure,24,30,up,0.809230089,2016_Apr_21_1505107,negative,timid,25,37,up,3.259912014,2016_Apr_21_1505107,positive,moralistic,26,11,up,1.058623791,2016_Apr_21_1505107,positive,brilliant,27,2,up,0.7586658,2016_Apr_21_1505107,negative,clumsy,28,23,up,1.609669924,2016_Apr_21_1505107,negative,hesitant,29,28,up,1.040251017,2016_Apr_21_1505107,positive,daring,30,6,down,1.342737913,2016_Apr_21_1505107,negative,emotional,31,27,up,0.925581932,2016_Apr_21_1505107,positive,sophisticated,32,17,up,3.240555048,2016_Apr_21_1505107,negative,stubborn,33,36,up,1.59246397,2016_Apr_21_1505107,positive,decisive,34,7,down,1.059174061,2016_Apr_21_1505107,negative,anxious,35,21,up,1.125848055,2016_Apr_21_1505107,negative,lazy,36,31,up,0.925431013,2016_Apr_21_1505107,positive,artistic,37,1,down,0.825870991,2016_Apr_21_1505107,positive,enterprising,38,8,up,1.307801962,2016_Apr_21_1505107,negative,withdrawn,39,38,down,1.475470066,2016_Apr_21_1505108,negative,critical,0,25,up,0.876121044,2016_Apr_21_1740108,positive,courageous,1,5,up,1.45810318,2016_Apr_21_1740108,negative,emotional,2,27,up,0.708914042,2016_Apr_21_1740108,positive,tidy,3,19,up,0.894346952,2016_Apr_21_1740108,negative,messy,4,32,down,0.876732826,2016_Apr_21_1740108,positive,enthusiastic,5,9,down,1.790971994,2016_Apr_21_1740108,positive,adventurous,6,0,up,0.824561119,2016_Apr_21_1740108,positive,brilliant,7,2,up,1.40889287,2016_Apr_21_1740108,negative,stubborn,8,36,down,1.292392015,2016_Apr_21_1740108,negative,indecisive,9,29,down,1.67506814,2016_Apr_21_1740108,positive,obedient,10,13,down,0.909176111,2016_Apr_21_1740108,positive,daring,11,6,up,1.226506948,2016_Apr_21_1740108,negative,timid,12,37,up,0.926450968,2016_Apr_21_1740108,negative,worrying,13,39,up,0.909116983,2016_Apr_21_1740108,negative,authoritative,14,22,down,0.973873854,2016_Apr_21_1740108,negative,insecure,15,30,up,0.9091959,2016_Apr_21_1740108,negative,moody,16,33,up,0.643796921,2016_Apr_21_1740108,positive,moralistic,17,11,up,0.808257103,2016_Apr_21_1740108,positive,outgoing,18,14,down,1.02598381,2016_Apr_21_1740108,positive,enterprising,19,8,down,1.490570068,2016_Apr_21_1740108,positive,proud,20,15,up,0.760275126,2016_Apr_21_1740108,positive,quick,21,16,up,1.158201933,2016_Apr_21_1740108,positive,decisive,22,7,down,1.225757837,2016_Apr_21_1740108,positive,tender,23,18,up,0.792756081,2016_Apr_21_1740108,negative,shy,24,35,up,0.610976219,2016_Apr_21_1740108,positive,neat,25,12,up,0.744514942,2016_Apr_21_1740108,positive,confident,26,4,down,1.208719015,2016_Apr_21_1740108,negative,hesitant,27,28,up,1.158599138,2016_Apr_21_1740108,positive,frank,28,10,up,0.826894045,2016_Apr_21_1740108,negative,conventional,29,24,down,1.038939953,2016_Apr_21_1740108,negative,clumsy,30,23,down,0.926503897,2016_Apr_21_1740108,positive,candid,31,3,up,0.759922981,2016_Apr_21_1740108,negative,rebellious,32,34,up,0.758494139,2016_Apr_21_1740108,positive,sophisticated,33,17,down,1.374212027,2016_Apr_21_1740108,negative,withdrawn,34,38,up,0.941715956,2016_Apr_21_1740108,negative,anxious,35,21,up,0.675974131,2016_Apr_21_1740108,positive,artistic,36,1,up,0.675987005,2016_Apr_21_1740108,negative,cynical,37,26,up,0.77651,2016_Apr_21_1740108,negative,antisocial,38,20,down,1.091831923,2016_Apr_21_1740108,negative,lazy,39,31,up,1.358660936,2016_Apr_21_1740109,negative,emotional,0,27,up,1.142536163,2016_Apr_21_1740109,negative,critical,1,25,down,1.259656906,2016_Apr_21_1740109,negative,worrying,2,39,down,1.126072884,2016_Apr_21_1740109,positive,obedient,3,13,up,2.242607832,2016_Apr_21_1740109,positive,sophisticated,4,17,up,1.1241889,2016_Apr_21_1740109,negative,authoritative,5,22,down,1.306547165,2016_Apr_21_1740109,positive,neat,6,12,down,1.378082037,2016_Apr_21_1740109,positive,adventurous,7,0,up,0.741750956,2016_Apr_21_1740109,negative,conventional,8,24,down,0.574209929,2016_Apr_21_1740109,positive,confident,9,4,up,0.675141811,2016_Apr_21_1740109,negative,rebellious,10,34,up,1.008015871,2016_Apr_21_1740109,positive,frank,11,10,down,0.776918173,2016_Apr_21_1740109,negative,shy,12,35,down,2.694576025,2016_Apr_21_1740109,negative,insecure,13,30,down,2.426118851,2016_Apr_21_1740109,positive,brilliant,14,2,up,2.25914216,2016_Apr_21_1740109,negative,stubborn,15,36,up,2.142915964,2016_Apr_21_1740109,negative,withdrawn,16,38,down,2.408841133,2016_Apr_21_1740109,positive,moralistic,17,11,up,2.925559998,2016_Apr_21_1740109,positive,artistic,18,1,up,0.842521906,2016_Apr_21_1740109,positive,quick,19,16,up,1.258005857,2016_Apr_21_1740109,positive,daring,20,6,up,1.009521008,2016_Apr_21_1740109,negative,anxious,21,21,down,0.975788832,2016_Apr_21_1740109,negative,antisocial,22,20,down,1.241976976,2016_Apr_21_1740109,positive,enthusiastic,23,9,up,0.974638939,2016_Apr_21_1740109,negative,indecisive,24,29,down,1.358509064,2016_Apr_21_1740109,negative,messy,25,32,down,1.710586071,2016_Apr_21_1740109,positive,candid,26,3,up,1.026463032,2016_Apr_21_1740109,negative,lazy,27,31,down,3.740588188,2016_Apr_21_1740109,positive,outgoing,28,14,up,1.926211834,2016_Apr_21_1740109,positive,tender,29,18,up,1.109879017,2016_Apr_21_1740109,negative,timid,30,37,down,0.693659067,2016_Apr_21_1740109,positive,decisive,31,7,up,0.659326792,2016_Apr_21_1740109,negative,cynical,32,26,down,1.959702015,2016_Apr_21_1740109,positive,courageous,33,5,up,1.174741983,2016_Apr_21_1740109,positive,proud,34,15,down,0.69374299,2016_Apr_21_1740109,positive,enterprising,35,8,up,0.824762106,2016_Apr_21_1740109,negative,hesitant,36,28,down,1.292644024,2016_Apr_21_1740109,negative,moody,37,33,up,0.527121067,2016_Apr_21_1740109,negative,clumsy,38,23,down,1.076133966,2016_Apr_21_1740109,positive,tidy,39,19,down,1.510622025,2016_Apr_21_1740110,negative,timid,0,37,down,1.059795856,2016_Apr_22_1134110,negative,indecisive,1,29,down,1.308187008,2016_Apr_22_1134110,positive,enthusiastic,2,9,up,1.007036209,2016_Apr_22_1134110,negative,shy,3,35,down,0.777821064,2016_Apr_22_1134110,negative,worrying,4,39,down,0.775940895,2016_Apr_22_1134110,positive,outgoing,5,14,up,0.675562859,2016_Apr_22_1134110,positive,artistic,6,1,down,1.075935125,2016_Apr_22_1134110,positive,moralistic,7,11,up,1.575200081,2016_Apr_22_1134110,positive,adventurous,8,0,up,0.974885941,2016_Apr_22_1134110,negative,lazy,9,31,down,0.641921997,2016_Apr_22_1134110,negative,anxious,10,21,down,0.759490967,2016_Apr_22_1134110,positive,candid,11,3,down,1.776028156,2016_Apr_22_1134110,positive,tidy,12,19,down,0.89427495,2016_Apr_22_1134110,negative,cynical,13,26,up,2.142335176,2016_Apr_22_1134110,negative,clumsy,14,23,down,1.409775019,2016_Apr_22_1134110,positive,proud,15,15,up,0.960233927,2016_Apr_22_1134110,negative,hesitant,16,28,down,1.858481884,2016_Apr_22_1134110,positive,sophisticated,17,17,up,1.840160131,2016_Apr_22_1134110,positive,neat,18,12,down,1.310990095,2016_Apr_22_1134110,negative,moody,19,33,up,1.143596888,2016_Apr_22_1134110,negative,authoritative,20,22,up,1.190753937,2016_Apr_22_1134110,negative,stubborn,21,36,up,1.025907993,2016_Apr_22_1134110,positive,tender,22,18,down,1.593156815,2016_Apr_22_1134110,positive,decisive,23,7,up,1.025401115,2016_Apr_22_1134110,positive,confident,24,4,up,0.808979034,2016_Apr_22_1134110,negative,emotional,25,27,up,1.658860922,2016_Apr_22_1134110,negative,rebellious,26,34,up,1.657734156,2016_Apr_22_1134110,negative,insecure,27,30,down,1.025963068,2016_Apr_22_1134110,positive,brilliant,28,2,up,0.758963108,2016_Apr_22_1134110,negative,conventional,29,24,down,1.489031076,2016_Apr_22_1134110,positive,enterprising,30,8,down,1.507938862,2016_Apr_22_1134110,negative,antisocial,31,20,down,0.97505188,2016_Apr_22_1134110,positive,daring,32,6,up,0.909969091,2016_Apr_22_1134110,negative,critical,33,25,up,0.859204054,2016_Apr_22_1134110,negative,withdrawn,34,38,down,1.058897972,2016_Apr_22_1134110,positive,courageous,35,5,up,0.825084925,2016_Apr_22_1134110,negative,messy,36,32,up,0.993204117,2016_Apr_22_1134110,positive,obedient,37,13,up,1.175815105,2016_Apr_22_1134110,positive,quick,38,16,down,0.957845926,2016_Apr_22_1134110,positive,frank,39,10,up,1.060275078,2016_Apr_22_1134111,positive,neat,0,12,down,1.144402027,2016_Apr_22_1341111,positive,sophisticated,1,17,up,1.190155983,2016_Apr_22_1341111,negative,cynical,2,26,up,0.776156902,2016_Apr_22_1341111,negative,rebellious,3,34,down,1.441474915,2016_Apr_22_1341111,negative,stubborn,4,36,up,1.359321117,2016_Apr_22_1341111,negative,worrying,5,39,up,1.625612974,2016_Apr_22_1341111,negative,clumsy,6,23,down,1.026050806,2016_Apr_22_1341111,negative,shy,7,35,up,1.060992956,2016_Apr_22_1341111,negative,antisocial,8,20,down,1.225080967,2016_Apr_22_1341111,positive,artistic,9,1,up,1.825845003,2016_Apr_22_1341111,positive,confident,10,4,up,0.725500822,2016_Apr_22_1341111,positive,decisive,11,7,down,1.742636919,2016_Apr_22_1341111,positive,enthusiastic,12,9,down,1.440600872,2016_Apr_22_1341111,positive,candid,13,3,up,2.292948008,2016_Apr_22_1341111,negative,moody,14,33,up,1.276435137,2016_Apr_22_1341111,negative,emotional,15,27,down,1.275542974,2016_Apr_22_1341111,positive,courageous,16,5,down,2.374913931,2016_Apr_22_1341111,positive,enterprising,17,8,up,1.574020147,2016_Apr_22_1341111,positive,proud,18,15,up,0.810497999,2016_Apr_22_1341111,positive,obedient,19,13,down,1.975651026,2016_Apr_22_1341111,negative,messy,20,32,up,2.510037899,2016_Apr_22_1341111,negative,lazy,21,31,up,2.124823093,2016_Apr_22_1341111,positive,tidy,22,19,up,1.777534008,2016_Apr_22_1341111,negative,hesitant,23,28,up,2.60854888,2016_Apr_22_1341111,positive,frank,24,10,up,0.9768641,2016_Apr_22_1341111,positive,brilliant,25,2,up,0.92538619,2016_Apr_22_1341111,positive,daring,26,6,up,1.62637496,2016_Apr_22_1341111,negative,anxious,27,21,up,2.475918055,2016_Apr_22_1341111,negative,critical,28,25,up,1.509222984,2016_Apr_22_1341111,positive,moralistic,29,11,down,1.62280798,2016_Apr_22_1341111,negative,insecure,30,30,down,1.092431068,2016_Apr_22_1341111,negative,indecisive,31,29,down,2.125046015,2016_Apr_22_1341111,negative,withdrawn,32,38,up,1.108819962,2016_Apr_22_1341111,positive,adventurous,33,0,down,1.941432953,2016_Apr_22_1341111,positive,quick,34,16,down,1.574505091,2016_Apr_22_1341111,negative,authoritative,35,22,up,1.423603058,2016_Apr_22_1341111,negative,conventional,36,24,down,1.024555922,2016_Apr_22_1341111,negative,timid,37,37,down,1.376799107,2016_Apr_22_1341111,positive,tender,38,18,down,2.309607029,2016_Apr_22_1341111,positive,outgoing,39,14,down,3.792253017,2016_Apr_22_1341112,positive,neat,0,12,up,0.727730036,2016_Apr_22_1404112,negative,rebellious,1,34,down,0.841270924,2016_Apr_22_1404112,negative,authoritative,2,22,up,0.790811062,2016_Apr_22_1404112,negative,shy,3,35,down,0.677757978,2016_Apr_22_1404112,positive,enthusiastic,4,9,up,0.624341965,2016_Apr_22_1404112,positive,proud,5,15,up,0.676357031,2016_Apr_22_1404112,negative,stubborn,6,36,up,0.925878048,2016_Apr_22_1404112,negative,critical,7,25,up,0.575901985,2016_Apr_22_1404112,negative,hesitant,8,28,down,0.775875092,2016_Apr_22_1404112,positive,tender,9,18,down,1.076338053,2016_Apr_22_1404112,positive,moralistic,10,11,down,1.508699894,2016_Apr_22_1404112,negative,worrying,11,39,up,2.258653879,2016_Apr_22_1404112,negative,moody,12,33,down,0.910340071,2016_Apr_22_1404112,positive,outgoing,13,14,up,0.709212065,2016_Apr_22_1404112,negative,antisocial,14,20,down,0.75865984,2016_Apr_22_1404112,positive,artistic,15,1,down,0.725821018,2016_Apr_22_1404112,positive,confident,16,4,up,0.592052937,2016_Apr_22_1404112,positive,sophisticated,17,17,up,0.590791225,2016_Apr_22_1404112,negative,withdrawn,18,38,down,0.65893507,2016_Apr_22_1404112,negative,insecure,19,30,down,0.642541885,2016_Apr_22_1404112,negative,messy,20,32,down,0.677035093,2016_Apr_22_1404112,positive,enterprising,21,8,up,0.591284037,2016_Apr_22_1404112,negative,lazy,22,31,down,0.691453934,2016_Apr_22_1404112,positive,candid,23,3,up,0.642599106,2016_Apr_22_1404112,negative,anxious,24,21,down,1.142883062,2016_Apr_22_1404112,positive,obedient,25,13,down,3.641546965,2016_Apr_22_1404112,positive,quick,26,16,up,1.24115181,2016_Apr_22_1404112,positive,daring,27,6,up,1.059782982,2016_Apr_22_1404112,negative,emotional,28,27,down,0.858932018,2016_Apr_22_1404112,negative,clumsy,29,23,down,0.60748601,2016_Apr_22_1404112,positive,courageous,30,5,up,1.675307989,2016_Apr_22_1404112,positive,brilliant,31,2,up,1.442071915,2016_Apr_22_1404112,positive,adventurous,32,0,up,2.358224869,2016_Apr_22_1404112,negative,cynical,33,26,up,0.792808056,2016_Apr_22_1404112,negative,indecisive,34,29,down,1.091931105,2016_Apr_22_1404112,positive,frank,35,10,up,0.742614985,2016_Apr_22_1404112,negative,timid,36,37,down,0.793144941,2016_Apr_22_1404112,positive,decisive,37,7,up,0.792555094,2016_Apr_22_1404112,positive,tidy,38,19,up,0.894510031,2016_Apr_22_1404112,negative,conventional,39,24,up,0.641458988,2016_Apr_22_1404113,negative,indecisive,0,29,up,1.374697924,2016_Apr_22_1611113,negative,clumsy,1,23,up,0.959822178,2016_Apr_22_1611113,positive,sophisticated,2,17,up,2.173768997,2016_Apr_22_1611113,negative,conventional,3,24,down,1.274261951,2016_Apr_22_1611113,negative,shy,4,35,up,0.944322824,2016_Apr_22_1611113,negative,rebellious,5,34,up,1.607922077,2016_Apr_22_1611113,negative,timid,6,37,up,1.009698868,2016_Apr_22_1611113,negative,insecure,7,30,up,0.925956011,2016_Apr_22_1611113,negative,antisocial,8,20,down,1.308459997,2016_Apr_22_1611113,negative,cynical,9,26,up,0.87625885,2016_Apr_22_1611113,negative,moody,10,33,up,1.076782227,2016_Apr_22_1611113,negative,authoritative,11,22,down,1.040477037,2016_Apr_22_1611113,negative,withdrawn,12,38,up,2.191982985,2016_Apr_22_1611113,negative,anxious,13,21,up,1.925076962,2016_Apr_22_1611113,positive,enthusiastic,14,9,down,1.908004045,2016_Apr_22_1611113,positive,brilliant,15,2,up,1.725242853,2016_Apr_22_1611113,positive,daring,16,6,up,2.49296999,2016_Apr_22_1611113,positive,enterprising,17,8,down,1.307580948,2016_Apr_22_1611113,negative,worrying,18,39,up,1.025851011,2016_Apr_22_1611113,positive,proud,19,15,down,1.526842117,2016_Apr_22_1611113,positive,candid,20,3,up,2.758949041,2016_Apr_22_1611113,negative,messy,21,32,up,0.793540955,2016_Apr_22_1611113,positive,obedient,22,13,down,1.475735903,2016_Apr_22_1611113,negative,hesitant,23,28,up,1.875518084,2016_Apr_22_1611113,negative,emotional,24,27,up,0.908872128,2016_Apr_22_1611113,positive,neat,25,12,down,2.294183016,2016_Apr_22_1611113,positive,courageous,26,5,down,3.324723005,2016_Apr_22_1611113,positive,decisive,27,7,down,2.22575593,2016_Apr_22_1611113,positive,artistic,28,1,up,0.909005165,2016_Apr_22_1611113,positive,adventurous,29,0,up,1.239299059,2016_Apr_22_1611113,positive,frank,30,10,up,1.143620014,2016_Apr_22_1611113,negative,lazy,31,31,up,1.875161886,2016_Apr_22_1611113,positive,confident,32,4,down,1.175497055,2016_Apr_22_1611113,positive,moralistic,33,11,down,1.574944019,2016_Apr_22_1611113,positive,tidy,34,19,down,0.977844954,2016_Apr_22_1611113,positive,tender,35,18,down,2.15903306,2016_Apr_22_1611113,positive,outgoing,36,14,down,1.00928092,2016_Apr_22_1611113,negative,stubborn,37,36,up,2.209189177,2016_Apr_22_1611113,negative,critical,38,25,up,2.858997107,2016_Apr_22_1611113,positive,quick,39,16,down,1.791184902,2016_Apr_22_1611114,negative,indecisive,0,29,down,1.074942112,2016_Apr_22_1616114,negative,hesitant,1,28,down,1.475723982,2016_Apr_22_1616114,positive,candid,2,3,up,1.709749937,2016_Apr_22_1616114,negative,shy,3,35,up,0.711097002,2016_Apr_22_1616114,positive,proud,4,15,up,0.75970912,2016_Apr_22_1616114,negative,insecure,5,30,up,0.842492819,2016_Apr_22_1616114,negative,cynical,6,26,down,1.126155853,2016_Apr_22_1616114,negative,clumsy,7,23,up,0.843305111,2016_Apr_22_1616114,positive,tender,8,18,up,0.943173885,2016_Apr_22_1616114,negative,anxious,9,21,up,0.709515095,2016_Apr_22_1616114,positive,tidy,10,19,up,0.693204165,2016_Apr_22_1616114,positive,moralistic,11,11,up,0.875330925,2016_Apr_22_1616114,positive,brilliant,12,2,up,0.842196941,2016_Apr_22_1616114,positive,decisive,13,7,up,0.775856972,2016_Apr_22_1616114,positive,enthusiastic,14,9,up,0.690888882,2016_Apr_22_1616114,negative,moody,15,33,up,0.826767921,2016_Apr_22_1616114,positive,daring,16,6,up,0.925793171,2016_Apr_22_1616114,positive,obedient,17,13,up,0.659188986,2016_Apr_22_1616114,positive,sophisticated,18,17,up,0.85737896,2016_Apr_22_1616114,positive,enterprising,19,8,up,0.990465164,2016_Apr_22_1616114,positive,outgoing,20,14,down,0.942688942,2016_Apr_22_1616114,negative,emotional,21,27,up,1.042083979,2016_Apr_22_1616114,positive,frank,22,10,up,0.893162966,2016_Apr_22_1616114,positive,adventurous,23,0,up,0.641368866,2016_Apr_22_1616114,negative,antisocial,24,20,down,0.858525038,2016_Apr_22_1616114,negative,authoritative,25,22,up,0.774078131,2016_Apr_22_1616114,positive,confident,26,4,up,0.842067957,2016_Apr_22_1616114,negative,lazy,27,31,down,0.975152016,2016_Apr_22_1616114,negative,critical,28,25,up,0.758743048,2016_Apr_22_1616114,positive,quick,29,16,up,0.807719946,2016_Apr_22_1616114,negative,worrying,30,39,up,0.992638111,2016_Apr_22_1616114,positive,neat,31,12,up,0.694237947,2016_Apr_22_1616114,positive,courageous,32,5,up,0.691877127,2016_Apr_22_1616114,negative,rebellious,33,34,down,1.057606936,2016_Apr_22_1616114,negative,timid,34,37,down,1.143575192,2016_Apr_22_1616114,negative,stubborn,35,36,up,0.725914955,2016_Apr_22_1616114,negative,withdrawn,36,38,down,1.159373045,2016_Apr_22_1616114,negative,conventional,37,24,down,0.891210079,2016_Apr_22_1616114,positive,artistic,38,1,up,0.859149218,2016_Apr_22_1616114,negative,messy,39,32,up,1.709666967,2016_Apr_22_1616115,negative,messy,0,32,up,1.025933027,2016_Apr_24_1347115,negative,emotional,1,27,down,1.175395012,2016_Apr_24_1347115,positive,proud,2,15,up,0.793596029,2016_Apr_24_1347115,positive,decisive,3,7,up,1.809165955,2016_Apr_24_1347115,negative,lazy,4,31,down,1.108043194,2016_Apr_24_1347115,positive,outgoing,5,14,up,0.775259018,2016_Apr_24_1347115,positive,candid,6,3,up,0.759727001,2016_Apr_24_1347115,negative,indecisive,7,29,down,0.708209038,2016_Apr_24_1347115,positive,neat,8,12,up,0.711042881,2016_Apr_24_1347115,positive,frank,9,10,up,1.610159874,2016_Apr_24_1347115,negative,moody,10,33,down,0.893400908,2016_Apr_24_1347115,negative,antisocial,11,20,down,0.974178076,2016_Apr_24_1347115,positive,courageous,12,5,up,1.008440971,2016_Apr_24_1347115,negative,stubborn,13,36,up,1.159170151,2016_Apr_24_1347115,positive,enterprising,14,8,up,0.924407959,2016_Apr_24_1347115,negative,hesitant,15,28,down,0.859190941,2016_Apr_24_1347115,negative,anxious,16,21,down,0.875771046,2016_Apr_24_1347115,negative,conventional,17,24,down,1.041164875,2016_Apr_24_1347115,positive,brilliant,18,2,up,1.791209936,2016_Apr_24_1347115,negative,shy,19,35,down,0.760915041,2016_Apr_24_1347115,negative,clumsy,20,23,up,1.026490927,2016_Apr_24_1347115,positive,tidy,21,19,up,0.944324017,2016_Apr_24_1347115,negative,timid,22,37,down,0.909733057,2016_Apr_24_1347115,negative,authoritative,23,22,down,1.107013941,2016_Apr_24_1347115,positive,moralistic,24,11,down,1.22466588,2016_Apr_24_1347115,positive,sophisticated,25,17,up,0.840626955,2016_Apr_24_1347115,negative,rebellious,26,34,up,0.941770077,2016_Apr_24_1347115,negative,withdrawn,27,38,down,0.958949089,2016_Apr_24_1347115,positive,daring,28,6,up,0.942052126,2016_Apr_24_1347115,positive,confident,29,4,up,0.808279991,2016_Apr_24_1347115,negative,insecure,30,30,down,0.775823116,2016_Apr_24_1347115,positive,enthusiastic,31,9,up,0.691059113,2016_Apr_24_1347115,negative,worrying,32,39,down,0.709030151,2016_Apr_24_1347115,negative,cynical,33,26,down,0.992654085,2016_Apr_24_1347115,positive,tender,34,18,down,0.959465027,2016_Apr_24_1347115,positive,obedient,35,13,down,0.925701141,2016_Apr_24_1347115,positive,quick,36,16,up,0.891018152,2016_Apr_24_1347115,positive,adventurous,37,0,up,0.658210993,2016_Apr_24_1347115,negative,critical,38,25,up,1.175793171,2016_Apr_24_1347115,positive,artistic,39,1,up,0.74187994,2016_Apr_24_1347116,negative,authoritative,0,22,up,0.957095146,2016_Apr_24_1421116,positive,proud,1,15,up,0.809860945,2016_Apr_24_1421116,positive,quick,2,16,up,0.690896034,2016_Apr_24_1421116,positive,enterprising,3,8,up,1.574207067,2016_Apr_24_1421116,positive,frank,4,10,up,1.309481859,2016_Apr_24_1421116,negative,anxious,5,21,up,0.892778873,2016_Apr_24_1421116,negative,moody,6,33,up,3.059893847,2016_Apr_24_1421116,positive,neat,7,12,up,2.743921041,2016_Apr_24_1421116,positive,brilliant,8,2,up,2.908478022,2016_Apr_24_1421116,negative,withdrawn,9,38,down,1.858698845,2016_Apr_24_1421116,positive,outgoing,10,14,up,0.97529006,2016_Apr_24_1421116,negative,antisocial,11,20,down,0.858132839,2016_Apr_24_1421116,negative,stubborn,12,36,up,1.059098959,2016_Apr_24_1421116,negative,lazy,13,31,up,1.308246136,2016_Apr_24_1421116,positive,artistic,14,1,up,0.842321873,2016_Apr_24_1421116,negative,indecisive,15,29,down,1.341033936,2016_Apr_24_1421116,positive,moralistic,16,11,up,1.125128984,2016_Apr_24_1421116,positive,courageous,17,5,up,2.591523886,2016_Apr_24_1421116,negative,shy,18,35,down,0.777598143,2016_Apr_24_1421116,negative,worrying,19,39,up,1.792281866,2016_Apr_24_1421116,positive,obedient,20,13,down,1.525192022,2016_Apr_24_1421116,positive,sophisticated,21,17,down,2.906804085,2016_Apr_24_1421116,negative,cynical,22,26,up,2.792582989,2016_Apr_24_1421116,negative,critical,23,25,up,0.959203005,2016_Apr_24_1421116,positive,enthusiastic,24,9,up,0.874561071,2016_Apr_24_1421116,negative,timid,25,37,down,0.826776981,2016_Apr_24_1421116,positive,decisive,26,7,up,1.558958054,2016_Apr_24_1421116,negative,hesitant,27,28,down,2.291808128,2016_Apr_24_1421116,negative,insecure,28,30,up,1.525707006,2016_Apr_24_1421116,negative,messy,29,32,down,1.060048819,2016_Apr_24_1421116,negative,rebellious,30,34,up,1.241658926,2016_Apr_24_1421116,positive,tender,31,18,down,1.059998035,2016_Apr_24_1421116,positive,tidy,32,19,up,0.810817957,2016_Apr_24_1421116,negative,clumsy,33,23,down,2.092715025,2016_Apr_24_1421116,positive,candid,34,3,up,1.243066072,2016_Apr_24_1421116,negative,conventional,35,24,down,1.774351835,2016_Apr_24_1421116,positive,adventurous,36,0,up,1.041790009,2016_Apr_24_1421116,positive,confident,37,4,up,0.958814859,2016_Apr_24_1421116,negative,emotional,38,27,up,1.775243998,2016_Apr_24_1421116,positive,daring,39,6,up,1.892132044,2016_Apr_24_1421117,positive,enthusiastic,0,9,up,4.790318012,2016_Apr_24_1435117,positive,quick,1,16,up,1.173994064,2016_Apr_24_1435117,positive,daring,2,6,down,0.893215895,2016_Apr_24_1435117,positive,neat,3,12,up,0.877465963,2016_Apr_24_1435117,positive,outgoing,4,14,down,0.825254917,2016_Apr_24_1435117,negative,timid,5,37,up,0.943391085,2016_Apr_24_1435117,negative,clumsy,6,23,up,0.776548147,2016_Apr_24_1435117,positive,tidy,7,19,up,1.927411079,2016_Apr_24_1435117,positive,moralistic,8,11,up,0.774861097,2016_Apr_24_1435117,negative,emotional,9,27,up,1.075465918,2016_Apr_24_1435117,negative,authoritative,10,22,up,1.023471117,2016_Apr_24_1435117,positive,adventurous,11,0,down,1.824467897,2016_Apr_24_1435117,positive,frank,12,10,down,1.076715946,2016_Apr_24_1435117,negative,conventional,13,24,up,0.991115093,2016_Apr_24_1435117,negative,hesitant,14,28,up,1.259220123,2016_Apr_24_1435117,positive,obedient,15,13,up,0.709120989,2016_Apr_24_1435117,negative,shy,16,35,up,0.677292109,2016_Apr_24_1435117,negative,critical,17,25,up,0.792621136,2016_Apr_24_1435117,negative,indecisive,18,29,up,0.7751441,2016_Apr_24_1435117,negative,insecure,19,30,up,0.809121847,2016_Apr_24_1435117,negative,cynical,20,26,up,1.009521008,2016_Apr_24_1435117,negative,antisocial,21,20,up,0.991786957,2016_Apr_24_1435117,positive,decisive,22,7,down,0.975399017,2016_Apr_24_1435117,negative,lazy,23,31,up,0.775203943,2016_Apr_24_1435117,positive,sophisticated,24,17,up,0.657408953,2016_Apr_24_1435117,negative,withdrawn,25,38,up,0.775488138,2016_Apr_24_1435117,positive,artistic,26,1,down,0.77578187,2016_Apr_24_1435117,positive,proud,27,15,up,0.843700886,2016_Apr_24_1435117,positive,confident,28,4,down,2.707985878,2016_Apr_24_1435117,negative,messy,29,32,up,0.726848125,2016_Apr_24_1435117,positive,enterprising,30,8,down,1.524456978,2016_Apr_24_1435117,negative,moody,31,33,up,0.876865864,2016_Apr_24_1435117,positive,tender,32,18,up,1.426388979,2016_Apr_24_1435117,positive,brilliant,33,2,up,0.958719015,2016_Apr_24_1435117,negative,anxious,34,21,up,0.742455959,2016_Apr_24_1435117,positive,candid,35,3,down,1.393096924,2016_Apr_24_1435117,negative,worrying,36,39,up,0.742532969,2016_Apr_24_1435117,negative,rebellious,37,34,down,1.025104046,2016_Apr_24_1435117,positive,courageous,38,5,down,2.74140501,2016_Apr_24_1435117,negative,stubborn,39,36,up,0.675795078,2016_Apr_24_1435118,positive,tender,0,18,down,1.14309907,2016_Apr_24_1543118,negative,anxious,1,21,up,1.209415913,2016_Apr_24_1543118,negative,clumsy,2,23,up,1.576375008,2016_Apr_24_1543118,positive,brilliant,3,2,up,0.992147207,2016_Apr_24_1543118,negative,critical,4,25,up,0.792464018,2016_Apr_24_1543118,positive,proud,5,15,up,0.826220989,2016_Apr_24_1543118,negative,authoritative,6,22,down,1.057176113,2016_Apr_24_1543118,negative,messy,7,32,down,0.826893091,2016_Apr_24_1543118,negative,conventional,8,24,down,0.890838861,2016_Apr_24_1543118,positive,confident,9,4,up,0.675451994,2016_Apr_24_1543118,negative,stubborn,10,36,up,1.075314999,2016_Apr_24_1543118,positive,adventurous,11,0,up,1.074798107,2016_Apr_24_1543118,negative,withdrawn,12,38,down,1.025491953,2016_Apr_24_1543118,positive,frank,13,10,up,1.210127115,2016_Apr_24_1543118,positive,moralistic,14,11,up,1.22429204,2016_Apr_24_1543118,positive,daring,15,6,down,1.176517963,2016_Apr_24_1543118,positive,artistic,16,1,up,1.075321198,2016_Apr_24_1543118,negative,lazy,17,31,up,0.925047874,2016_Apr_24_1543118,negative,timid,18,37,down,0.910243988,2016_Apr_24_1543118,positive,courageous,19,5,down,1.125115156,2016_Apr_24_1543118,negative,cynical,20,26,up,1.059380054,2016_Apr_24_1543118,negative,shy,21,35,down,0.69388485,2016_Apr_24_1543118,positive,sophisticated,22,17,up,0.757479906,2016_Apr_24_1543118,positive,quick,23,16,up,0.624386072,2016_Apr_24_1543118,positive,outgoing,24,14,up,0.675859928,2016_Apr_24_1543118,negative,insecure,25,30,up,1.075224876,2016_Apr_24_1543118,negative,rebellious,26,34,down,1.57503891,2016_Apr_24_1543118,positive,neat,27,12,up,0.727117062,2016_Apr_24_1543118,positive,enthusiastic,28,9,up,0.607913017,2016_Apr_24_1543118,positive,decisive,29,7,down,1.225325823,2016_Apr_24_1543118,negative,worrying,30,39,up,1.00910306,2016_Apr_24_1543118,negative,moody,31,33,up,0.910242081,2016_Apr_24_1543118,positive,obedient,32,13,down,0.992542028,2016_Apr_24_1543118,positive,tidy,33,19,up,0.843819141,2016_Apr_24_1543118,negative,antisocial,34,20,down,0.875224829,2016_Apr_24_1543118,positive,candid,35,3,up,0.709813118,2016_Apr_24_1543118,negative,emotional,36,27,up,1.642362118,2016_Apr_24_1543118,positive,enterprising,37,8,up,0.79105711,2016_Apr_24_1543118,negative,hesitant,38,28,up,1.609041929,2016_Apr_24_1543118,negative,indecisive,39,29,up,1.107989073,2016_Apr_24_1543120,positive,courageous,0,5,up,2.624651194,2016_Apr_26_1516120,positive,tidy,1,19,down,1.094457865,2016_Apr_26_1516120,negative,lazy,2,31,down,4.791292906,2016_Apr_26_1516120,negative,rebellious,3,34,down,1.691745043,2016_Apr_26_1516120,negative,emotional,4,27,down,2.691966057,2016_Apr_26_1516120,positive,tender,5,18,up,8.991849899,2016_Apr_26_1516120,negative,hesitant,6,28,up,1.691895008,2016_Apr_26_1516120,positive,adventurous,7,0,down,2.707849979,2016_Apr_26_1516120,positive,brilliant,8,2,down,3.841763973,2016_Apr_26_1516120,positive,daring,9,6,down,2.276237011,2016_Apr_26_1516120,negative,cynical,10,26,up,1.126326084,2016_Apr_26_1516120,positive,quick,11,16,up,1.973191977,2016_Apr_26_1516120,negative,indecisive,12,29,up,1.041122913,2016_Apr_26_1516120,negative,anxious,13,21,up,2.092561007,2016_Apr_26_1516120,positive,decisive,14,7,down,1.442583084,2016_Apr_26_1516120,negative,antisocial,15,20,down,1.608516932,2016_Apr_26_1516120,positive,candid,16,3,up,2.359756947,2016_Apr_26_1516120,negative,insecure,17,30,up,2.34196496,2016_Apr_26_1516120,positive,outgoing,18,14,up,0.82575798,2016_Apr_26_1516120,negative,timid,19,37,down,2.460039854,2016_Apr_26_1516120,positive,obedient,20,13,up,1.142446041,2016_Apr_26_1516120,negative,withdrawn,21,38,down,1.891921043,2016_Apr_26_1516120,negative,messy,22,32,up,1.093454123,2016_Apr_26_1516120,negative,conventional,23,24,down,3.640197039,2016_Apr_26_1516120,positive,enthusiastic,24,9,up,1.257849932,2016_Apr_26_1516120,positive,proud,25,15,down,3.409752131,2016_Apr_26_1516120,positive,enterprising,26,8,down,2.040759087,2016_Apr_26_1516120,negative,worrying,27,39,up,2.425487995,2016_Apr_26_1516120,negative,critical,28,25,up,1.425930023,2016_Apr_26_1516120,positive,confident,29,4,up,0.956533909,2016_Apr_26_1516120,positive,artistic,30,1,down,0.992552996,2016_Apr_26_1516120,positive,neat,31,12,down,1.444249868,2016_Apr_26_1516120,negative,authoritative,32,22,down,1.723967075,2016_Apr_26_1516120,negative,stubborn,33,36,down,1.992558002,2016_Apr_26_1516120,negative,moody,34,33,up,2.260100126,2016_Apr_26_1516120,positive,frank,35,10,down,2.326180935,2016_Apr_26_1516120,positive,moralistic,36,11,up,1.558427095,2016_Apr_26_1516120,negative,shy,37,35,down,3.127260923,2016_Apr_26_1516120,positive,sophisticated,38,17,down,1.774191141,2016_Apr_26_1516120,negative,clumsy,39,23,down,1.743017912,2016_Apr_26_1516121,positive,moralistic,0,11,down,1.024955034,2016_Apr_26_1543121,negative,conventional,1,24,down,1.274178982,2016_Apr_26_1543121,positive,sophisticated,2,17,up,1.157138109,2016_Apr_26_1543121,negative,lazy,3,31,up,0.724549055,2016_Apr_26_1543121,positive,outgoing,4,14,up,0.775900126,2016_Apr_26_1543121,positive,decisive,5,7,up,0.808863878,2016_Apr_26_1543121,negative,hesitant,6,28,down,0.675843,2016_Apr_26_1543121,negative,authoritative,7,22,up,1.173572063,2016_Apr_26_1543121,positive,adventurous,8,0,up,0.708268881,2016_Apr_26_1543121,negative,worrying,9,39,down,0.859125853,2016_Apr_26_1543121,negative,timid,10,37,down,0.693212032,2016_Apr_26_1543121,negative,critical,11,25,up,0.808783054,2016_Apr_26_1543121,positive,enterprising,12,8,up,1.24100399,2016_Apr_26_1543121,positive,enthusiastic,13,9,up,0.657633066,2016_Apr_26_1543121,positive,quick,14,16,up,1.141043901,2016_Apr_26_1543121,negative,emotional,15,27,up,0.842504978,2016_Apr_26_1543121,negative,shy,16,35,down,1.127171993,2016_Apr_26_1543121,negative,messy,17,32,up,0.743485928,2016_Apr_26_1543121,negative,moody,18,33,up,0.676775932,2016_Apr_26_1543121,negative,antisocial,19,20,down,0.774568081,2016_Apr_26_1543121,positive,daring,20,6,up,2.126281977,2016_Apr_26_1543121,positive,tender,21,18,down,1.343022823,2016_Apr_26_1543121,negative,stubborn,22,36,up,1.008706808,2016_Apr_26_1543121,positive,confident,23,4,up,0.77558589,2016_Apr_26_1543121,negative,clumsy,24,23,up,1.676316023,2016_Apr_26_1543121,negative,rebellious,25,34,down,2.674886942,2016_Apr_26_1543121,negative,indecisive,26,29,down,0.925302982,2016_Apr_26_1543121,positive,frank,27,10,up,0.876786947,2016_Apr_26_1543121,negative,cynical,28,26,up,0.790599108,2016_Apr_26_1543121,positive,brilliant,29,2,up,6.574623108,2016_Apr_26_1543121,positive,candid,30,3,up,0.909960032,2016_Apr_26_1543121,positive,obedient,31,13,down,1.959101915,2016_Apr_26_1543121,positive,tidy,32,19,down,0.794490099,2016_Apr_26_1543121,negative,insecure,33,30,down,0.925971031,2016_Apr_26_1543121,positive,artistic,34,1,down,0.892574072,2016_Apr_26_1543121,positive,proud,35,15,up,1.143096924,2016_Apr_26_1543121,negative,withdrawn,36,38,down,0.77502203,2016_Apr_26_1543121,positive,courageous,37,5,down,1.341845989,2016_Apr_26_1543121,negative,anxious,38,21,down,0.742810965,2016_Apr_26_1543121,positive,neat,39,12,down,0.82776618,2016_Apr_26_1543122,positive,candid,0,3,up,2.259679079,2016_Apr_26_1604122,positive,decisive,1,7,up,1.325721979,2016_Apr_26_1604122,positive,moralistic,2,11,up,1.957966089,2016_Apr_26_1604122,negative,worrying,3,39,down,1.859117031,2016_Apr_26_1604122,negative,moody,4,33,down,2.442941904,2016_Apr_26_1604122,positive,sophisticated,5,17,up,0.906864882,2016_Apr_26_1604122,positive,outgoing,6,14,down,1.809135199,2016_Apr_26_1604122,positive,enthusiastic,7,9,up,1.774030924,2016_Apr_26_1604122,positive,artistic,8,1,down,1.009034872,2016_Apr_26_1604122,positive,neat,9,12,down,1.144447088,2016_Apr_26_1604122,negative,critical,10,25,up,0.808645964,2016_Apr_26_1604122,positive,enterprising,11,8,down,1.290863991,2016_Apr_26_1604122,positive,confident,12,4,up,0.792228937,2016_Apr_26_1604122,negative,clumsy,13,23,down,1.492921829,2016_Apr_26_1604122,negative,withdrawn,14,38,down,3.8585639,2016_Apr_26_1604122,negative,stubborn,15,36,up,1.992290974,2016_Apr_26_1604122,negative,indecisive,16,29,down,1.308370113,2016_Apr_26_1604122,positive,proud,17,15,up,0.943198204,2016_Apr_26_1604122,negative,hesitant,18,28,down,8.408087015,2016_Apr_26_1604122,negative,cynical,19,26,down,2.142668009,2016_Apr_26_1604122,negative,shy,20,35,down,0.977653027,2016_Apr_26_1604122,negative,emotional,21,27,up,1.875206947,2016_Apr_26_1604122,positive,obedient,22,13,down,1.175708056,2016_Apr_26_1604122,negative,conventional,23,24,up,1.257408142,2016_Apr_26_1604122,negative,messy,24,32,down,0.860311985,2016_Apr_26_1604122,positive,daring,25,6,down,1.459681988,2016_Apr_26_1604122,positive,courageous,26,5,down,1.025271893,2016_Apr_26_1604122,positive,brilliant,27,2,down,0.992180109,2016_Apr_26_1604122,negative,lazy,28,31,up,1.041934013,2016_Apr_26_1604122,positive,quick,29,16,down,1.021791935,2016_Apr_26_1604122,negative,rebellious,30,34,up,1.924993038,2016_Apr_26_1604122,negative,anxious,31,21,up,1.042863846,2016_Apr_26_1604122,negative,timid,32,37,down,1.542834997,2016_Apr_26_1604122,negative,insecure,33,30,up,1.009160042,2016_Apr_26_1604122,negative,authoritative,34,22,down,0.957446098,2016_Apr_26_1604122,negative,antisocial,35,20,down,0.874744892,2016_Apr_26_1604122,positive,frank,36,10,up,1.426800013,2016_Apr_26_1604122,positive,tidy,37,19,down,1.560857058,2016_Apr_26_1604122,positive,adventurous,38,0,down,1.774719,2016_Apr_26_1604122,positive,tender,39,18,down,1.043288946,2016_Apr_26_1604123,positive,tender,0,18,up,1.0763309,2016_Apr_26_1629123,positive,sophisticated,1,17,up,1.223791122,2016_Apr_26_1629123,negative,critical,2,25,up,0.709276915,2016_Apr_26_1629123,positive,candid,3,3,up,0.71006608,2016_Apr_26_1629123,positive,obedient,4,13,down,0.992603064,2016_Apr_26_1629123,negative,insecure,5,30,up,0.809185028,2016_Apr_26_1629123,positive,quick,6,16,up,0.940593004,2016_Apr_26_1629123,negative,worrying,7,39,up,0.775807142,2016_Apr_26_1629123,negative,lazy,8,31,up,0.842073917,2016_Apr_26_1629123,positive,moralistic,9,11,up,0.908149958,2016_Apr_26_1629123,positive,frank,10,10,up,0.76010704,2016_Apr_26_1629123,negative,shy,11,35,up,0.926895857,2016_Apr_26_1629123,positive,daring,12,6,down,0.859847069,2016_Apr_26_1629123,positive,enterprising,13,8,down,0.907691002,2016_Apr_26_1629123,positive,enthusiastic,14,9,up,0.774488926,2016_Apr_26_1629123,negative,cynical,15,26,down,0.909680128,2016_Apr_26_1629123,negative,indecisive,16,29,up,0.825004816,2016_Apr_26_1629123,negative,timid,17,37,up,0.993331194,2016_Apr_26_1629123,negative,hesitant,18,28,up,0.909268141,2016_Apr_26_1629123,negative,stubborn,19,36,up,1.141807079,2016_Apr_26_1629123,negative,moody,20,33,up,0.743382931,2016_Apr_26_1629123,negative,rebellious,21,34,down,0.72527504,2016_Apr_26_1629123,negative,conventional,22,24,up,0.990892887,2016_Apr_26_1629123,negative,emotional,23,27,up,1.192039967,2016_Apr_26_1629123,positive,proud,24,15,up,0.876878023,2016_Apr_26_1629123,negative,clumsy,25,23,down,1.326577902,2016_Apr_26_1629123,positive,artistic,26,1,down,0.942456007,2016_Apr_26_1629123,positive,tidy,27,19,down,1.044015884,2016_Apr_26_1629123,positive,neat,28,12,down,0.958818913,2016_Apr_26_1629123,negative,antisocial,29,20,down,0.875452042,2016_Apr_26_1629123,positive,confident,30,4,up,0.675564051,2016_Apr_26_1629123,positive,brilliant,31,2,down,0.975433826,2016_Apr_26_1629123,negative,messy,32,32,down,1.026784897,2016_Apr_26_1629123,positive,adventurous,33,0,down,0.758283138,2016_Apr_26_1629123,positive,outgoing,34,14,up,1.042630911,2016_Apr_26_1629123,negative,authoritative,35,22,up,1.140504837,2016_Apr_26_1629123,negative,withdrawn,36,38,down,1.442048073,2016_Apr_26_1629123,negative,anxious,37,21,up,0.792917013,2016_Apr_26_1629123,positive,courageous,38,5,down,0.958451033,2016_Apr_26_1629123,positive,decisive,39,7,down,1.0259161,2016_Apr_26_1629124,negative,antisocial,0,20,down,1.79152894,2016_Apr_26_1705124,negative,worrying,1,39,up,1.359153986,2016_Apr_26_1705124,positive,proud,2,15,up,1.426412106,2016_Apr_26_1705124,positive,neat,3,12,down,2.444013119,2016_Apr_26_1705124,negative,stubborn,4,36,up,1.042569876,2016_Apr_26_1705124,positive,enthusiastic,5,9,up,1.623914957,2016_Apr_26_1705124,positive,tidy,6,19,down,2.476863146,2016_Apr_26_1705124,negative,lazy,7,31,down,2.108345032,2016_Apr_26_1705124,negative,moody,8,33,down,2.293356895,2016_Apr_26_1705124,positive,obedient,9,13,up,2.192401886,2016_Apr_26_1705124,positive,outgoing,10,14,up,1.1758461,2016_Apr_26_1705124,positive,decisive,11,7,up,3.008424997,2016_Apr_26_1705124,negative,indecisive,12,29,down,0.941912889,2016_Apr_26_1705124,negative,anxious,13,21,up,2.209185839,2016_Apr_26_1705124,negative,rebellious,14,34,down,3.324845076,2016_Apr_26_1705124,positive,courageous,15,5,up,2.908119917,2016_Apr_26_1705124,negative,emotional,16,27,up,1.275441885,2016_Apr_26_1705124,negative,critical,17,25,up,1.85872817,2016_Apr_26_1705124,negative,timid,18,37,down,1.07679987,2016_Apr_26_1705124,negative,withdrawn,19,38,up,1.592071056,2016_Apr_26_1705124,positive,frank,20,10,up,1.626770973,2016_Apr_26_1705124,positive,quick,21,16,down,2.840800047,2016_Apr_26_1705124,positive,enterprising,22,8,down,3.890681028,2016_Apr_26_1705124,positive,brilliant,23,2,up,1.974848986,2016_Apr_26_1705124,negative,hesitant,24,28,up,1.292454004,2016_Apr_26_1705124,negative,cynical,25,26,down,1.875966072,2016_Apr_26_1705124,positive,tender,26,18,up,1.576553106,2016_Apr_26_1705124,positive,confident,27,4,up,2.058832169,2016_Apr_26_1705124,negative,clumsy,28,23,down,2.776507854,2016_Apr_26_1705124,negative,conventional,29,24,down,3.388811827,2016_Apr_26_1705124,positive,moralistic,30,11,up,2.141815186,2016_Apr_26_1705124,negative,insecure,31,30,up,1.659191132,2016_Apr_26_1705124,positive,adventurous,32,0,up,3.291156054,2016_Apr_26_1705124,positive,candid,33,3,up,1.143209934,2016_Apr_26_1705124,positive,sophisticated,34,17,down,2.973552942,2016_Apr_26_1705124,positive,artistic,35,1,up,0.842245102,2016_Apr_26_1705124,negative,messy,36,32,up,3.026720047,2016_Apr_26_1705124,negative,shy,37,35,down,1.894418001,2016_Apr_26_1705124,negative,authoritative,38,22,up,3.257424831,2016_Apr_26_1705124,positive,daring,39,6,down,4.126263857,2016_Apr_26_1705125,negative,withdrawn,0,38,down,1.808934927,2016_Apr_27_1244125,positive,enthusiastic,1,9,up,0.907792091,2016_Apr_27_1244125,negative,indecisive,2,29,down,1.008059025,2016_Apr_27_1244125,negative,lazy,3,31,down,0.741762161,2016_Apr_27_1244125,positive,proud,4,15,up,0.80990696,2016_Apr_27_1244125,positive,confident,5,4,up,0.758486986,2016_Apr_27_1244125,positive,courageous,6,5,up,1.125046015,2016_Apr_27_1244125,positive,daring,7,6,down,2.059655905,2016_Apr_27_1244125,negative,stubborn,8,36,up,1.042503834,2016_Apr_27_1244125,negative,antisocial,9,20,down,0.891998053,2016_Apr_27_1244125,negative,timid,10,37,down,0.85957408,2016_Apr_27_1244125,positive,sophisticated,11,17,up,1.023587942,2016_Apr_27_1244125,positive,frank,12,10,up,0.843489885,2016_Apr_27_1244125,negative,moody,13,33,down,1.060124874,2016_Apr_27_1244125,positive,moralistic,14,11,up,0.858619928,2016_Apr_27_1244125,negative,hesitant,15,28,down,1.475846052,2016_Apr_27_1244125,positive,neat,16,12,up,0.777662039,2016_Apr_27_1244125,positive,adventurous,17,0,up,0.691178083,2016_Apr_27_1244125,positive,obedient,18,13,down,1.659105062,2016_Apr_27_1244125,negative,shy,19,35,down,0.877578974,2016_Apr_27_1244125,positive,brilliant,20,2,down,2.191888094,2016_Apr_27_1244125,positive,tidy,21,19,up,0.810306072,2016_Apr_27_1244125,positive,enterprising,22,8,down,1.607768059,2016_Apr_27_1244125,positive,decisive,23,7,up,0.825520992,2016_Apr_27_1244125,negative,insecure,24,30,down,0.942398787,2016_Apr_27_1244125,negative,emotional,25,27,up,1.042379141,2016_Apr_27_1244125,negative,conventional,26,24,up,1.257788897,2016_Apr_27_1244125,negative,clumsy,27,23,down,1.393168926,2016_Apr_27_1244125,negative,critical,28,25,up,0.892539978,2016_Apr_27_1244125,positive,tender,29,18,up,0.774345875,2016_Apr_27_1244125,positive,candid,30,3,up,0.943377972,2016_Apr_27_1244125,negative,authoritative,31,22,down,2.324100018,2016_Apr_27_1244125,positive,quick,32,16,up,0.924431801,2016_Apr_27_1244125,negative,worrying,33,39,up,1.209119082,2016_Apr_27_1244125,negative,rebellious,34,34,up,1.241783142,2016_Apr_27_1244125,positive,outgoing,35,14,up,0.79191184,2016_Apr_27_1244125,negative,anxious,36,21,up,0.792818785,2016_Apr_27_1244125,negative,messy,37,32,down,0.743610144,2016_Apr_27_1244125,negative,cynical,38,26,down,1.026355028,2016_Apr_27_1244125,positive,artistic,39,1,up,1.142410994,2016_Apr_27_1244126,positive,neat,0,12,down,1.094511986,2016_Apr_27_1240126,negative,indecisive,1,29,down,1.008226156,2016_Apr_27_1240126,positive,obedient,2,13,up,1.175747871,2016_Apr_27_1240126,negative,insecure,3,30,down,0.942423105,2016_Apr_27_1240126,negative,critical,4,25,up,0.925793886,2016_Apr_27_1240126,positive,tidy,5,19,down,0.960460901,2016_Apr_27_1240126,negative,rebellious,6,34,up,0.825186968,2016_Apr_27_1240126,negative,clumsy,7,23,down,1.026443005,2016_Apr_27_1240126,positive,sophisticated,8,17,up,1.057342052,2016_Apr_27_1240126,positive,decisive,9,7,up,0.775859833,2016_Apr_27_1240126,negative,anxious,10,21,down,0.809494972,2016_Apr_27_1240126,negative,lazy,11,31,down,0.874770164,2016_Apr_27_1240126,negative,shy,12,35,down,0.877565145,2016_Apr_27_1240126,positive,enthusiastic,13,9,up,0.774189949,2016_Apr_27_1240126,positive,courageous,14,5,up,0.891642094,2016_Apr_27_1240126,negative,conventional,15,24,down,1.174373865,2016_Apr_27_1240126,negative,hesitant,16,28,down,0.825387001,2016_Apr_27_1240126,positive,tender,17,18,up,1.193277836,2016_Apr_27_1240126,negative,messy,18,32,up,1.359827995,2016_Apr_27_1240126,positive,proud,19,15,up,0.726742983,2016_Apr_27_1240126,negative,cynical,20,26,down,1.359420061,2016_Apr_27_1240126,positive,artistic,21,1,up,0.792582035,2016_Apr_27_1240126,negative,emotional,22,27,up,1.3251791,2016_Apr_27_1240126,positive,confident,23,4,up,0.725374937,2016_Apr_27_1240126,positive,frank,24,10,up,1.52661705,2016_Apr_27_1240126,negative,stubborn,25,36,down,1.875675917,2016_Apr_27_1240126,positive,quick,26,16,up,1.274417162,2016_Apr_27_1240126,negative,worrying,27,39,down,0.841901064,2016_Apr_27_1240126,negative,withdrawn,28,38,down,0.875648022,2016_Apr_27_1240126,positive,outgoing,29,14,up,0.742571115,2016_Apr_27_1240126,positive,candid,30,3,up,1.109815836,2016_Apr_27_1240126,positive,daring,31,6,up,0.776535988,2016_Apr_27_1240126,positive,moralistic,32,11,up,0.891870975,2016_Apr_27_1240126,negative,moody,33,33,down,0.793151855,2016_Apr_27_1240126,positive,adventurous,34,0,up,0.891420841,2016_Apr_27_1240126,negative,timid,35,37,down,0.760203123,2016_Apr_27_1240126,negative,authoritative,36,22,up,0.658170938,2016_Apr_27_1240126,positive,brilliant,37,2,up,0.60888195,2016_Apr_27_1240126,positive,enterprising,38,8,up,0.807816982,2016_Apr_27_1240126,negative,antisocial,39,20,down,0.808079958,2016_Apr_27_1240127,positive,brilliant,0,2,up,1.408836126,2016_Apr_27_1409127,positive,quick,1,16,up,0.824100971,2016_Apr_27_1409127,negative,antisocial,2,20,down,1.308245182,2016_Apr_27_1409127,positive,candid,3,3,up,0.975986958,2016_Apr_27_1409127,positive,decisive,4,7,up,0.992083073,2016_Apr_27_1409127,positive,artistic,5,1,up,0.925821781,2016_Apr_27_1409127,positive,tender,6,18,down,1.193084002,2016_Apr_27_1409127,negative,shy,7,35,up,1.327600002,2016_Apr_27_1409127,positive,moralistic,8,11,up,1.675076962,2016_Apr_27_1409127,positive,tidy,9,19,down,1.027540922,2016_Apr_27_1409127,negative,anxious,10,21,up,1.009096861,2016_Apr_27_1409127,positive,daring,11,6,up,2.859583139,2016_Apr_27_1409127,negative,emotional,12,27,up,1.192066908,2016_Apr_27_1409127,negative,hesitant,13,28,up,1.892304897,2016_Apr_27_1409127,negative,worrying,14,39,up,0.959161043,2016_Apr_27_1409127,positive,proud,15,15,down,1.710054159,2016_Apr_27_1409127,positive,enterprising,16,8,down,1.857307911,2016_Apr_27_1409127,negative,indecisive,17,29,up,1.208728075,2016_Apr_27_1409127,positive,obedient,18,13,down,1.125919104,2016_Apr_27_1409127,positive,adventurous,19,0,up,0.791572094,2016_Apr_27_1409127,positive,frank,20,10,up,0.843548059,2016_Apr_27_1409127,negative,stubborn,21,36,up,1.10905695,2016_Apr_27_1409127,negative,rebellious,22,34,up,0.891487837,2016_Apr_27_1409127,negative,timid,23,37,down,3.009868145,2016_Apr_27_1409127,positive,sophisticated,24,17,up,1.640396118,2016_Apr_27_1409127,positive,courageous,25,5,up,0.97510314,2016_Apr_27_1409127,positive,enthusiastic,26,9,up,0.791082144,2016_Apr_27_1409127,negative,cynical,27,26,up,0.926257849,2016_Apr_27_1409127,positive,outgoing,28,14,up,0.708065987,2016_Apr_27_1409127,negative,insecure,29,30,up,0.825883865,2016_Apr_27_1409127,positive,confident,30,4,down,1.942026854,2016_Apr_27_1409127,negative,withdrawn,31,38,down,2.391905069,2016_Apr_27_1409127,negative,conventional,32,24,down,1.407795906,2016_Apr_27_1409127,negative,critical,33,25,up,1.359217882,2016_Apr_27_1409127,negative,lazy,34,31,down,1.341279984,2016_Apr_27_1409127,negative,clumsy,35,23,up,1.193084002,2016_Apr_27_1409127,negative,messy,36,32,up,1.093566895,2016_Apr_27_1409127,negative,moody,37,33,up,1.043459177,2016_Apr_27_1409127,positive,neat,38,12,down,1.160879135,2016_Apr_27_1409127,negative,authoritative,39,22,down,2.540646076,2016_Apr_27_1409128,positive,adventurous,0,0,up,0.775166035,2016_Apr_28_1601128,positive,tidy,1,19,up,0.860968113,2016_Apr_28_1601128,positive,daring,2,6,down,1.476352215,2016_Apr_28_1601128,positive,frank,3,10,down,1.276316881,2016_Apr_28_1601128,negative,messy,4,32,down,0.99351716,2016_Apr_28_1601128,negative,antisocial,5,20,down,1.091541052,2016_Apr_28_1601128,positive,sophisticated,6,17,up,0.906873941,2016_Apr_28_1601128,negative,indecisive,7,29,up,1.474636078,2016_Apr_28_1601128,negative,emotional,8,27,down,1.308898926,2016_Apr_28_1601128,negative,insecure,9,30,down,0.959307909,2016_Apr_28_1601128,negative,shy,10,35,down,0.877629042,2016_Apr_28_1601128,positive,obedient,11,13,up,0.725846052,2016_Apr_28_1601128,negative,clumsy,12,23,down,0.809495926,2016_Apr_28_1601128,positive,moralistic,13,11,up,1.12509203,2016_Apr_28_1601128,negative,anxious,14,21,up,1.443006992,2016_Apr_28_1601128,negative,withdrawn,15,38,down,1.142142057,2016_Apr_28_1601128,negative,lazy,16,31,down,0.891854048,2016_Apr_28_1601128,positive,quick,17,16,up,1.090886116,2016_Apr_28_1601128,negative,conventional,18,24,up,0.724400043,2016_Apr_28_1601128,positive,courageous,19,5,up,0.591899872,2016_Apr_28_1601128,positive,tender,20,18,up,1.259873867,2016_Apr_28_1601128,positive,enterprising,21,8,up,1.591230154,2016_Apr_28_1601128,positive,candid,22,3,down,0.79321909,2016_Apr_28_1601128,positive,outgoing,23,14,up,0.842254162,2016_Apr_28_1601128,negative,moody,24,33,down,1.460230827,2016_Apr_28_1601128,negative,rebellious,25,34,down,1.258455992,2016_Apr_28_1601128,negative,timid,26,37,down,1.04345417,2016_Apr_28_1601128,negative,authoritative,27,22,up,1.540899992,2016_Apr_28_1601128,positive,neat,28,12,up,1.977554798,2016_Apr_28_1601128,positive,confident,29,4,up,1.406718016,2016_Apr_28_1601128,negative,critical,30,25,up,1.059350967,2016_Apr_28_1601128,positive,proud,31,15,up,1.043651819,2016_Apr_28_1601128,positive,brilliant,32,2,up,0.925595045,2016_Apr_28_1601128,positive,decisive,33,7,up,0.792517185,2016_Apr_28_1601128,negative,stubborn,34,36,down,2.725712061,2016_Apr_28_1601128,positive,enthusiastic,35,9,up,0.807904005,2016_Apr_28_1601128,positive,artistic,36,1,down,1.308781862,2016_Apr_28_1601128,negative,cynical,37,26,down,1.692780972,2016_Apr_28_1601128,negative,worrying,38,39,down,1.459182978,2016_Apr_28_1601128,negative,hesitant,39,28,up,2.292495966,2016_Apr_28_1601129,positive,moralistic,0,11,up,9.840248108,2016_Apr_28_1709129,negative,insecure,1,30,up,5.175199986,2016_Apr_28_1709129,negative,authoritative,2,22,down,5.039990902,2016_Apr_28_1709129,negative,rebellious,3,34,down,5.024659157,2016_Apr_28_1709129,positive,daring,4,6,down,4.875967979,2016_Apr_28_1709129,negative,lazy,5,31,down,5.10747385,2016_Apr_28_1709129,positive,adventurous,6,0,down,5.157607079,2016_Apr_28_1709129,positive,sophisticated,7,17,down,5.139750957,2016_Apr_28_1709129,positive,tender,8,18,up,5.076012135,2016_Apr_28_1709129,negative,moody,9,33,up,4.992851973,2016_Apr_28_1709129,positive,frank,10,10,up,4.659852028,2016_Apr_28_1709129,negative,anxious,11,21,up,4.958782911,2016_Apr_28_1709129,positive,tidy,12,19,up,4.460487127,2016_Apr_28_1709129,negative,worrying,13,39,up,4.875177145,2016_Apr_28_1709129,negative,cynical,14,26,down,5.192302942,2016_Apr_28_1709129,negative,emotional,15,27,up,4.425200939,2016_Apr_28_1709129,positive,enterprising,16,8,down,4.823802948,2016_Apr_28_1709129,positive,quick,17,16,up,4.790173054,2016_Apr_28_1709129,positive,neat,18,12,up,4.560534954,2016_Apr_28_1709129,negative,critical,19,25,down,5.125218868,2016_Apr_28_1709129,positive,candid,20,3,up,5.04260397,2016_Apr_28_1709129,negative,indecisive,21,29,up,5.191233158,2016_Apr_28_1709129,negative,clumsy,22,23,down,4.442203999,2016_Apr_28_1709129,positive,decisive,23,7,down,5.075289011,2016_Apr_28_1709129,negative,messy,24,32,down,5.026303768,2016_Apr_28_1709129,negative,antisocial,25,20,down,5.007946014,2016_Apr_28_1709129,positive,obedient,26,13,up,4.942150116,2016_Apr_28_1709129,negative,shy,27,35,up,4.927188873,2016_Apr_28_1709129,positive,brilliant,28,2,down,4.872897863,2016_Apr_28_1709129,negative,withdrawn,29,38,up,4.975100994,2016_Apr_28_1709129,positive,artistic,30,1,down,5.042049885,2016_Apr_28_1709129,positive,courageous,31,5,down,5.107958078,2016_Apr_28_1709129,negative,timid,32,37,up,5.109743834,2016_Apr_28_1709129,positive,enthusiastic,33,9,up,5.107436895,2016_Apr_28_1709129,negative,conventional,34,24,up,5.006960869,2016_Apr_28_1709129,negative,stubborn,35,36,down,5.158165932,2016_Apr_28_1709129,positive,confident,36,4,down,5.191698074,2016_Apr_28_1709129,negative,hesitant,37,28,up,5.042186022,2016_Apr_28_1709129,positive,proud,38,15,down,4.309891939,2016_Apr_28_1709129,positive,outgoing,39,14,down,4.542191029,2016_Apr_28_1709130,negative,lazy,0,31,up,1.108311892,2016_Apr_28_1734130,positive,obedient,1,13,down,1.225816965,2016_Apr_28_1734130,positive,brilliant,2,2,up,0.975575924,2016_Apr_28_1734130,negative,critical,3,25,up,1.275900841,2016_Apr_28_1734130,negative,withdrawn,4,38,down,2.3920331,2016_Apr_28_1734130,positive,quick,5,16,up,1.590432167,2016_Apr_28_1734130,negative,messy,6,32,down,2.476731062,2016_Apr_28_1734130,negative,stubborn,7,36,up,1.542555094,2016_Apr_28_1734130,positive,daring,8,6,down,2.426439047,2016_Apr_28_1734130,positive,enterprising,9,8,up,1.424261093,2016_Apr_28_1734130,negative,rebellious,10,34,up,1.108128071,2016_Apr_28_1734130,negative,emotional,11,27,up,0.808667183,2016_Apr_28_1734130,positive,courageous,12,5,down,1.391885042,2016_Apr_28_1734130,positive,frank,13,10,up,2.609968185,2016_Apr_28_1734130,positive,adventurous,14,0,up,0.791471958,2016_Apr_28_1734130,negative,timid,15,37,down,0.91019702,2016_Apr_28_1734130,positive,artistic,16,1,down,0.875776052,2016_Apr_28_1734130,negative,insecure,17,30,up,1.992116928,2016_Apr_28_1734130,positive,tender,18,18,up,1.126011848,2016_Apr_28_1734130,negative,cynical,19,26,up,1.342885017,2016_Apr_28_1734130,positive,proud,20,15,up,1.193625927,2016_Apr_28_1734130,positive,outgoing,21,14,up,1.109412909,2016_Apr_28_1734130,negative,indecisive,22,29,up,1.641882896,2016_Apr_28_1734130,positive,tidy,23,19,up,3.193589926,2016_Apr_28_1734130,negative,antisocial,24,20,down,1.791255951,2016_Apr_28_1734130,positive,confident,25,4,up,1.325518847,2016_Apr_28_1734130,positive,enthusiastic,26,9,up,1.274055958,2016_Apr_28_1734130,negative,conventional,27,24,down,1.591108084,2016_Apr_28_1734130,positive,decisive,28,7,down,2.192600012,2016_Apr_28_1734130,negative,hesitant,29,28,up,2.306735992,2016_Apr_28_1734130,negative,moody,30,33,up,0.96026206,2016_Apr_28_1734130,negative,authoritative,31,22,up,1.257310152,2016_Apr_28_1734130,negative,clumsy,32,23,down,1.476541042,2016_Apr_28_1734130,positive,candid,33,3,up,1.02669096,2016_Apr_28_1734130,negative,worrying,34,39,up,1.325876951,2016_Apr_28_1734130,negative,shy,35,35,down,0.727470875,2016_Apr_28_1734130,positive,sophisticated,36,17,down,3.14054203,2016_Apr_28_1734130,positive,neat,37,12,up,1.01090312,2016_Apr_28_1734130,negative,anxious,38,21,up,1.326368809,2016_Apr_28_1734130,positive,moralistic,39,11,down,2.125234842,2016_Apr_28_1734131,negative,critical,0,25,up,0.742154121,2016_Apr_28_1745131,negative,clumsy,1,23,down,0.809525967,2016_Apr_28_1745131,negative,moody,2,33,up,1.009802103,2016_Apr_28_1745131,negative,anxious,3,21,down,1.042874813,2016_Apr_28_1745131,negative,stubborn,4,36,down,0.975492001,2016_Apr_28_1745131,negative,authoritative,5,22,up,1.007263899,2016_Apr_28_1745131,negative,insecure,6,30,up,0.825525045,2016_Apr_28_1745131,positive,neat,7,12,up,0.793848038,2016_Apr_28_1745131,positive,artistic,8,1,up,0.74235487,2016_Apr_28_1745131,negative,antisocial,9,20,down,1.158200979,2016_Apr_28_1745131,positive,quick,10,16,up,0.624579906,2016_Apr_28_1745131,positive,adventurous,11,0,up,0.591027021,2016_Apr_28_1745131,positive,enterprising,12,8,up,0.691137075,2016_Apr_28_1745131,positive,decisive,13,7,up,0.825814009,2016_Apr_28_1745131,positive,tidy,14,19,down,0.827654123,2016_Apr_28_1745131,positive,frank,15,10,up,0.726994038,2016_Apr_28_1745131,positive,candid,16,3,up,0.893440008,2016_Apr_28_1745131,negative,cynical,17,26,up,0.75936389,2016_Apr_28_1745131,negative,shy,18,35,down,0.661017895,2016_Apr_28_1745131,positive,brilliant,19,2,up,0.82545805,2016_Apr_28_1745131,positive,moralistic,20,11,down,1.12512207,2016_Apr_28_1745131,negative,worrying,21,39,down,1.15920496,2016_Apr_28_1745131,negative,withdrawn,22,38,down,1.19200778,2016_Apr_28_1745131,negative,timid,23,37,down,0.943116903,2016_Apr_28_1745131,negative,indecisive,24,29,down,1.575058937,2016_Apr_28_1745131,positive,proud,25,15,down,1.360068083,2016_Apr_28_1745131,positive,enthusiastic,26,9,down,1.124490976,2016_Apr_28_1745131,positive,sophisticated,27,17,up,0.824253082,2016_Apr_28_1745131,negative,emotional,28,27,up,0.975717068,2016_Apr_28_1745131,positive,obedient,29,13,down,0.990433216,2016_Apr_28_1745131,negative,messy,30,32,up,0.860225916,2016_Apr_28_1745131,positive,courageous,31,5,up,0.6918571,2016_Apr_28_1745131,positive,outgoing,32,14,up,0.642530918,2016_Apr_28_1745131,negative,conventional,33,24,down,0.841215134,2016_Apr_28_1745131,negative,hesitant,34,28,up,0.925873995,2016_Apr_28_1745131,positive,daring,35,6,up,0.643009186,2016_Apr_28_1745131,positive,tender,36,18,up,0.776562929,2016_Apr_28_1745131,negative,lazy,37,31,up,0.80884099,2016_Apr_28_1745131,negative,rebellious,38,34,up,0.791409016,2016_Apr_28_1745131,positive,confident,39,4,up,0.608369112,2016_Apr_28_1745132,positive,quick,0,16,down,0.973946095,2016_Apr_29_1514132,positive,adventurous,1,0,down,0.974756956,2016_Apr_29_1514132,negative,timid,2,37,down,1.243452072,2016_Apr_29_1514132,positive,tidy,3,19,up,1.194257975,2016_Apr_29_1514132,positive,tender,4,18,up,1.093231916,2016_Apr_29_1514132,negative,critical,5,25,up,0.942365885,2016_Apr_29_1514132,negative,moody,6,33,up,0.893119097,2016_Apr_29_1514132,positive,confident,7,4,down,1.208857059,2016_Apr_29_1514132,positive,courageous,8,5,down,1.141613007,2016_Apr_29_1514132,negative,rebellious,9,34,up,0.958641052,2016_Apr_29_1514132,negative,cynical,10,26,down,1.426335812,2016_Apr_29_1514132,negative,authoritative,11,22,down,1.240289927,2016_Apr_29_1514132,positive,neat,12,12,up,0.861038923,2016_Apr_29_1514132,negative,emotional,13,27,up,0.80838418,2016_Apr_29_1514132,positive,enterprising,14,8,down,0.990516901,2016_Apr_29_1514132,negative,conventional,15,24,down,1.591198921,2016_Apr_29_1514132,negative,lazy,16,31,up,1.141863108,2016_Apr_29_1514132,positive,daring,17,6,down,0.959463835,2016_Apr_29_1514132,negative,anxious,18,21,up,1.026215792,2016_Apr_29_1514132,negative,hesitant,19,28,up,1.57585907,2016_Apr_29_1514132,positive,sophisticated,20,17,up,1.040738821,2016_Apr_29_1514132,negative,insecure,21,30,up,1.342391014,2016_Apr_29_1514132,positive,candid,22,3,up,1.175881863,2016_Apr_29_1514132,negative,indecisive,23,29,up,0.891680956,2016_Apr_29_1514132,positive,decisive,24,7,down,0.825922012,2016_Apr_29_1514132,positive,brilliant,25,2,up,1.558906794,2016_Apr_29_1514132,negative,antisocial,26,20,down,1.341893911,2016_Apr_29_1514132,negative,clumsy,27,23,up,1.343328953,2016_Apr_29_1514132,positive,enthusiastic,28,9,up,1.05803895,2016_Apr_29_1514132,negative,worrying,29,39,up,2.223347902,2016_Apr_29_1514132,negative,shy,30,35,up,1.161037922,2016_Apr_29_1514132,positive,proud,31,15,down,1.593640089,2016_Apr_29_1514132,positive,artistic,32,1,up,0.776047945,2016_Apr_29_1514132,negative,withdrawn,33,38,up,1.142373085,2016_Apr_29_1514132,positive,moralistic,34,11,down,1.508693933,2016_Apr_29_1514132,negative,stubborn,35,36,up,0.892345905,2016_Apr_29_1514132,negative,messy,36,32,down,0.993531942,2016_Apr_29_1514132,positive,outgoing,37,14,up,2.742394924,2016_Apr_29_1514132,positive,obedient,38,13,up,1.692620039,2016_Apr_29_1514132,positive,frank,39,10,down,1.410173893,2016_Apr_29_1514133,positive,neat,0,12,up,0.977907896,2016_Apr_29_1605133,negative,indecisive,1,29,down,1.041064024,2016_Apr_29_1605133,positive,confident,2,4,down,0.958901167,2016_Apr_29_1605133,negative,timid,3,37,up,0.993204117,2016_Apr_29_1605133,positive,enterprising,4,8,down,1.374266863,2016_Apr_29_1605133,negative,stubborn,5,36,up,0.858945847,2016_Apr_29_1605133,negative,lazy,6,31,up,1.041497946,2016_Apr_29_1605133,negative,antisocial,7,20,up,0.841925859,2016_Apr_29_1605133,negative,conventional,8,24,down,1.174715042,2016_Apr_29_1605133,positive,decisive,9,7,up,1.225942135,2016_Apr_29_1605133,negative,worrying,10,39,down,1.925885916,2016_Apr_29_1605133,positive,courageous,11,5,down,0.824730873,2016_Apr_29_1605133,positive,daring,12,6,down,1.04320097,2016_Apr_29_1605133,negative,cynical,13,26,up,0.992762089,2016_Apr_29_1605133,positive,quick,14,16,up,1.274409056,2016_Apr_29_1605133,negative,insecure,15,30,up,0.992572069,2016_Apr_29_1605133,positive,adventurous,16,0,up,1.157783985,2016_Apr_29_1605133,positive,frank,17,10,up,1.110253811,2016_Apr_29_1605133,positive,sophisticated,18,17,up,1.257160902,2016_Apr_29_1605133,positive,moralistic,19,11,up,0.992045164,2016_Apr_29_1605133,negative,hesitant,20,28,up,1.10928607,2016_Apr_29_1605133,negative,authoritative,21,22,down,0.957723141,2016_Apr_29_1605133,positive,tender,22,18,down,1.859493971,2016_Apr_29_1605133,positive,proud,23,15,down,0.793722868,2016_Apr_29_1605133,negative,rebellious,24,34,down,1.075138092,2016_Apr_29_1605133,positive,candid,25,3,down,1.359772921,2016_Apr_29_1605133,negative,anxious,26,21,up,0.876333952,2016_Apr_29_1605133,negative,critical,27,25,up,0.759373903,2016_Apr_29_1605133,negative,messy,28,32,down,0.708155155,2016_Apr_29_1605133,positive,outgoing,29,14,down,0.776107788,2016_Apr_29_1605133,positive,tidy,30,19,up,0.711256981,2016_Apr_29_1605133,positive,brilliant,31,2,down,1.175494909,2016_Apr_29_1605133,negative,shy,32,35,up,0.794529915,2016_Apr_29_1605133,negative,clumsy,33,23,down,0.776666164,2016_Apr_29_1605133,negative,withdrawn,34,38,up,1.258642912,2016_Apr_29_1605133,negative,emotional,35,27,down,0.842169046,2016_Apr_29_1605133,positive,obedient,36,13,up,1.042642832,2016_Apr_29_1605133,positive,enthusiastic,37,9,up,1.291339874,2016_Apr_29_1605133,positive,artistic,38,1,up,0.709203959,2016_Apr_29_1605133,negative,moody,39,33,down,1.043651104,2016_Apr_29_1605134,negative,conventional,0,24,up,1.19096303,2016_Apr_29_1642134,negative,antisocial,1,20,down,1.641492128,2016_Apr_29_1642134,negative,indecisive,2,29,up,1.158582211,2016_Apr_29_1642134,negative,worrying,3,39,up,1.025933981,2016_Apr_29_1642134,negative,authoritative,4,22,up,1.507194042,2016_Apr_29_1642134,negative,emotional,5,27,up,2.15852499,2016_Apr_29_1642134,positive,obedient,6,13,down,2.175955057,2016_Apr_29_1642134,negative,critical,7,25,up,0.859296083,2016_Apr_29_1642134,negative,cynical,8,26,up,1.692750931,2016_Apr_29_1642134,negative,stubborn,9,36,down,2.642286778,2016_Apr_29_1642134,positive,tender,10,18,up,2.242573023,2016_Apr_29_1642134,negative,anxious,11,21,up,1.375680923,2016_Apr_29_1642134,negative,shy,12,35,up,1.577653885,2016_Apr_29_1642134,negative,lazy,13,31,down,1.042331934,2016_Apr_29_1642134,negative,timid,14,37,down,1.659363031,2016_Apr_29_1642134,positive,proud,15,15,up,0.976997852,2016_Apr_29_1642134,positive,quick,16,16,up,2.273782015,2016_Apr_29_1642134,positive,confident,17,4,up,1.95864296,2016_Apr_29_1642134,positive,moralistic,18,11,up,1.325178862,2016_Apr_29_1642134,negative,hesitant,19,28,up,1.075730085,2016_Apr_29_1642134,positive,daring,20,6,down,2.176310062,2016_Apr_29_1642134,positive,frank,21,10,down,1.993464947,2016_Apr_29_1642134,positive,adventurous,22,0,up,1.507704973,2016_Apr_29_1642134,positive,outgoing,23,14,up,2.842342138,2016_Apr_29_1642134,positive,sophisticated,24,17,up,0.790949821,2016_Apr_29_1642134,positive,tidy,25,19,down,2.694313049,2016_Apr_29_1642134,negative,rebellious,26,34,down,1.158226013,2016_Apr_29_1642134,negative,messy,27,32,down,1.426875114,2016_Apr_29_1642134,negative,moody,28,33,down,1.124325991,2016_Apr_29_1642134,positive,artistic,29,1,down,1.025952816,2016_Apr_29_1642134,negative,clumsy,30,23,down,1.026551962,2016_Apr_29_1642134,positive,enthusiastic,31,9,up,2.15774703,2016_Apr_29_1642134,negative,insecure,32,30,down,1.04253912,2016_Apr_29_1642134,positive,neat,33,12,down,2.877462864,2016_Apr_29_1642134,positive,candid,34,3,up,2.342956066,2016_Apr_29_1642134,negative,withdrawn,35,38,down,0.941834927,2016_Apr_29_1642134,positive,enterprising,36,8,up,2.024400949,2016_Apr_29_1642134,positive,courageous,37,5,down,2.858400106,2016_Apr_29_1642134,positive,brilliant,38,2,down,2.358818054,2016_Apr_29_1642134,positive,decisive,39,7,down,2.592412949,2016_Apr_29_1642135,negative,messy,0,32,down,1.293083906,2016_May_01_1307135,positive,enterprising,1,8,down,1.740886927,2016_May_01_1307135,positive,candid,2,3,up,1.3764081,2016_May_01_1307135,positive,proud,3,15,up,0.843585014,2016_May_01_1307135,positive,courageous,4,5,up,0.774486065,2016_May_01_1307135,negative,cynical,5,26,up,0.959461927,2016_May_01_1307135,positive,frank,6,10,down,1.193288088,2016_May_01_1307135,positive,brilliant,7,2,up,0.792168856,2016_May_01_1307135,positive,daring,8,6,up,1.092880011,2016_May_01_1307135,positive,tidy,9,19,up,0.977730989,2016_May_01_1307135,positive,decisive,10,7,up,1.158768177,2016_May_01_1307135,positive,quick,11,16,up,0.874155998,2016_May_01_1307135,negative,timid,12,37,down,1.1267488,2016_May_01_1307135,negative,indecisive,13,29,down,1.108283043,2016_May_01_1307135,negative,stubborn,14,36,up,1.559016943,2016_May_01_1307135,negative,worrying,15,39,up,1.341063023,2016_May_01_1307135,negative,antisocial,16,20,down,1.008422136,2016_May_01_1307135,negative,conventional,17,24,up,1.907632113,2016_May_01_1307135,positive,adventurous,18,0,up,0.99136591,2016_May_01_1307135,negative,insecure,19,30,up,1.109001875,2016_May_01_1307135,positive,outgoing,20,14,down,1.559085131,2016_May_01_1307135,negative,critical,21,25,up,1.058631897,2016_May_01_1307135,positive,enthusiastic,22,9,up,1.474520206,2016_May_01_1307135,positive,moralistic,23,11,up,1.325154066,2016_May_01_1307135,positive,artistic,24,1,down,0.90905118,2016_May_01_1307135,positive,obedient,25,13,up,1.275691032,2016_May_01_1307135,negative,clumsy,26,23,up,1.176413059,2016_May_01_1307135,positive,neat,27,12,up,0.877092838,2016_May_01_1307135,negative,authoritative,28,22,up,1.82299614,2016_May_01_1307135,negative,anxious,29,21,up,2.074892998,2016_May_01_1307135,negative,moody,30,33,up,1.243434191,2016_May_01_1307135,negative,shy,31,35,up,1.210817099,2016_May_01_1307135,negative,rebellious,32,34,down,1.191670179,2016_May_01_1307135,negative,lazy,33,31,down,1.758083105,2016_May_01_1307135,positive,sophisticated,34,17,up,1.274002075,2016_May_01_1307135,positive,tender,35,18,down,1.45975399,2016_May_01_1307135,negative,emotional,36,27,up,0.975382805,2016_May_01_1307135,positive,confident,37,4,up,0.908295155,2016_May_01_1307135,negative,hesitant,38,28,down,1.492249012,2016_May_01_1307135,negative,withdrawn,39,38,up,1.658195972,2016_May_01_1307136,positive,outgoing,0,14,up,0.925168037,2016_May_01_1323136,positive,tidy,1,19,down,1.494224072,2016_May_01_1323136,positive,enthusiastic,2,9,up,2.374128103,2016_May_01_1323136,negative,authoritative,3,22,up,1.840452909,2016_May_01_1323136,negative,hesitant,4,28,up,1.492391825,2016_May_01_1323136,negative,messy,5,32,down,2.658694029,2016_May_01_1323136,positive,adventurous,6,0,up,0.741500854,2016_May_01_1323136,negative,rebellious,7,34,down,2.874653101,2016_May_01_1323136,negative,indecisive,8,29,up,3.39142108,2016_May_01_1323136,positive,proud,9,15,up,1.360100985,2016_May_01_1323136,positive,tender,10,18,up,1.442734957,2016_May_01_1323136,positive,quick,11,16,down,2.057462931,2016_May_01_1323136,positive,obedient,12,13,up,1.275786877,2016_May_01_1323136,positive,neat,13,12,down,1.444050074,2016_May_01_1323136,negative,antisocial,14,20,down,1.791696787,2016_May_01_1323136,negative,emotional,15,27,up,1.091513157,2016_May_01_1323136,negative,withdrawn,16,38,down,4.07488203,2016_May_01_1323136,positive,confident,17,4,up,0.892045021,2016_May_01_1323136,negative,conventional,18,24,down,3.50741601,2016_May_01_1323136,positive,sophisticated,19,17,down,8.173163176,2016_May_01_1323136,negative,lazy,20,31,up,1.158349037,2016_May_01_1323136,negative,insecure,21,30,up,0.741769075,2016_May_01_1323136,positive,courageous,22,5,up,0.758407831,2016_May_01_1323136,negative,moody,23,33,up,0.910064936,2016_May_01_1323136,positive,enterprising,24,8,up,1.124562025,2016_May_01_1323136,positive,moralistic,25,11,up,0.808565855,2016_May_01_1323136,positive,brilliant,26,2,up,1.392084122,2016_May_01_1323136,negative,shy,27,35,down,1.443864107,2016_May_01_1323136,negative,cynical,28,26,up,1.959366083,2016_May_01_1323136,negative,anxious,29,21,up,0.759522915,2016_May_01_1323136,positive,frank,30,10,up,1.643390894,2016_May_01_1323136,negative,stubborn,31,36,up,0.725718975,2016_May_01_1323136,negative,timid,32,37,down,1.610012054,2016_May_01_1323136,positive,decisive,33,7,up,1.208799124,2016_May_01_1323136,positive,daring,34,6,up,4.409255981,2016_May_01_1323136,positive,artistic,35,1,up,1.14239502,2016_May_01_1323136,negative,clumsy,36,23,down,2.042857885,2016_May_01_1323136,negative,worrying,37,39,up,1.559165001,2016_May_01_1323136,positive,candid,38,3,up,0.97646904,2016_May_01_1323136,negative,critical,39,25,up,0.858645916,2016_May_01_1323137,negative,worrying,0,39,up,0.992548943,2016_May_01_1336137,positive,proud,1,15,down,1.343158007,2016_May_01_1336137,positive,artistic,2,1,up,1.892394781,2016_May_01_1336137,negative,messy,3,32,down,1.160253048,2016_May_01_1336137,negative,shy,4,35,down,1.094265938,2016_May_01_1336137,negative,hesitant,5,28,up,1.092094898,2016_May_01_1336137,negative,moody,6,33,up,0.976704121,2016_May_01_1336137,negative,critical,7,25,up,0.875847101,2016_May_01_1336137,positive,obedient,8,13,up,1.125762939,2016_May_01_1336137,positive,courageous,9,5,down,1.241468906,2016_May_01_1336137,positive,neat,10,12,up,1.027188063,2016_May_01_1336137,positive,quick,11,16,up,2.240705967,2016_May_01_1336137,negative,anxious,12,21,up,0.942703009,2016_May_01_1336137,negative,stubborn,13,36,down,1.125674009,2016_May_01_1336137,positive,candid,14,3,up,1.126356125,2016_May_01_1336137,negative,antisocial,15,20,down,1.758544922,2016_May_01_1336137,negative,insecure,16,30,up,1.175081968,2016_May_01_1336137,negative,authoritative,17,22,down,1.273679018,2016_May_01_1336137,positive,moralistic,18,11,down,2.525092125,2016_May_01_1336137,positive,adventurous,19,0,down,1.058067083,2016_May_01_1336137,positive,outgoing,20,14,down,1.875661135,2016_May_01_1336137,positive,enterprising,21,8,down,1.090624094,2016_May_01_1336137,negative,indecisive,22,29,up,1.058341026,2016_May_01_1336137,positive,daring,23,6,down,1.359668016,2016_May_01_1336137,positive,confident,24,4,down,0.991477013,2016_May_01_1336137,positive,decisive,25,7,down,1.175815105,2016_May_01_1336137,negative,timid,26,37,up,1.426735163,2016_May_01_1336137,positive,enthusiastic,27,9,up,2.923706055,2016_May_01_1336137,negative,cynical,28,26,up,0.976186991,2016_May_01_1336137,negative,rebellious,29,34,down,1.191715002,2016_May_01_1336137,negative,withdrawn,30,38,down,0.775346041,2016_May_01_1336137,positive,sophisticated,31,17,down,1.073843002,2016_May_01_1336137,positive,tender,32,18,down,1.026527166,2016_May_01_1336137,positive,tidy,33,19,up,1.326985836,2016_May_01_1336137,negative,conventional,34,24,down,1.557769775,2016_May_01_1336137,negative,lazy,35,31,down,1.158266783,2016_May_01_1336137,positive,brilliant,36,2,down,1.108495951,2016_May_01_1336137,negative,emotional,37,27,up,1.658638954,2016_May_01_1336137,negative,clumsy,38,23,up,1.476257086,2016_May_01_1336137,positive,frank,39,10,up,1.159691811,2016_May_01_1336138,negative,shy,0,35,up,1.010915995,2016_May_02_1011138,negative,worrying,1,39,up,0.776087046,2016_May_02_1011138,positive,courageous,2,5,down,1.174802065,2016_May_02_1011138,positive,candid,3,3,down,1.143353939,2016_May_02_1011138,positive,moralistic,4,11,up,1.141816139,2016_May_02_1011138,negative,clumsy,5,23,up,1.393135071,2016_May_02_1011138,negative,hesitant,6,28,up,1.025686979,2016_May_02_1011138,negative,messy,7,32,up,0.826536894,2016_May_02_1011138,positive,daring,8,6,down,1.30988884,2016_May_02_1011138,positive,confident,9,4,down,1.125708103,2016_May_02_1011138,negative,anxious,10,21,up,1.026208878,2016_May_02_1011138,positive,enterprising,11,8,up,2.207247019,2016_May_02_1011138,negative,critical,12,25,up,2.225816965,2016_May_02_1011138,negative,timid,13,37,down,1.626802921,2016_May_02_1011138,positive,artistic,14,1,up,1.142591,2016_May_02_1011138,positive,obedient,15,13,down,1.059250116,2016_May_02_1011138,negative,withdrawn,16,38,up,1.742139101,2016_May_02_1011138,negative,antisocial,17,20,down,1.141562939,2016_May_02_1011138,negative,rebellious,18,34,up,1.175340176,2016_May_02_1011138,positive,neat,19,12,down,0.844150066,2016_May_02_1011138,positive,quick,20,16,down,1.174366951,2016_May_02_1011138,positive,adventurous,21,0,up,1.091536045,2016_May_02_1011138,positive,enthusiastic,22,9,up,1.391376972,2016_May_02_1011138,negative,emotional,23,27,up,1.091706038,2016_May_02_1011138,negative,cynical,24,26,down,0.909658909,2016_May_02_1011138,positive,decisive,25,7,down,1.142469883,2016_May_02_1011138,positive,brilliant,26,2,down,1.708738804,2016_May_02_1011138,negative,lazy,27,31,up,1.241967916,2016_May_02_1011138,negative,indecisive,28,29,up,1.15854311,2016_May_02_1011138,negative,conventional,29,24,down,1.072168827,2016_May_02_1011138,negative,authoritative,30,22,down,1.257459879,2016_May_02_1011138,negative,moody,31,33,down,2.343341827,2016_May_02_1011138,negative,insecure,32,30,up,1.042532921,2016_May_02_1011138,positive,frank,33,10,up,1.243607998,2016_May_02_1011138,positive,proud,34,15,down,1.410342216,2016_May_02_1011138,positive,outgoing,35,14,up,1.608849049,2016_May_02_1011138,positive,tidy,36,19,down,1.111154079,2016_May_02_1011138,negative,stubborn,37,36,up,1.0093081,2016_May_02_1011138,positive,sophisticated,38,17,down,1.39109683,2016_May_02_1011138,positive,tender,39,18,up,1.043367863,2016_May_02_1011139,positive,adventurous,0,0,up,0.808305979,2016_May_02_1042139,negative,conventional,1,24,down,1.156769991,2016_May_02_1042139,negative,emotional,2,27,up,1.192140818,2016_May_02_1042139,negative,authoritative,3,22,up,2.490524054,2016_May_02_1042139,positive,tidy,4,19,down,0.960950136,2016_May_02_1042139,negative,indecisive,5,29,up,0.974853039,2016_May_02_1042139,positive,sophisticated,6,17,down,1.590440035,2016_May_02_1042139,positive,obedient,7,13,down,1.292495012,2016_May_02_1042139,negative,lazy,8,31,up,2.391826868,2016_May_02_1042139,positive,candid,9,3,up,1.076767921,2016_May_02_1042139,negative,hesitant,10,28,up,2.992228031,2016_May_02_1042139,positive,decisive,11,7,down,1.124722004,2016_May_02_1042139,positive,confident,12,4,down,1.375380993,2016_May_02_1042139,negative,shy,13,35,down,2.777328014,2016_May_02_1042139,positive,artistic,14,1,down,1.092535019,2016_May_02_1042139,positive,outgoing,15,14,down,4.358837128,2016_May_02_1042139,positive,tender,16,18,down,1.860013962,2016_May_02_1042139,negative,messy,17,32,up,1.409595013,2016_May_02_1042139,negative,cynical,18,26,up,1.476185083,2016_May_02_1042139,positive,enterprising,19,8,down,2.324433088,2016_May_02_1042139,negative,worrying,20,39,down,2.292277098,2016_May_02_1042139,negative,clumsy,21,23,down,1.742563963,2016_May_02_1042139,positive,enthusiastic,22,9,down,1.624628067,2016_May_02_1042139,positive,brilliant,23,2,down,1.091835022,2016_May_02_1042139,positive,quick,24,16,up,1.624283075,2016_May_02_1042139,positive,courageous,25,5,up,1.441986084,2016_May_02_1042139,negative,insecure,26,30,up,1.5591681,2016_May_02_1042139,positive,frank,27,10,up,0.993616104,2016_May_02_1042139,negative,anxious,28,21,up,1.209434986,2016_May_02_1042139,negative,rebellious,29,34,down,1.539490938,2016_May_02_1042139,positive,proud,30,15,up,1.793518066,2016_May_02_1042139,negative,moody,31,33,up,1.076880932,2016_May_02_1042139,positive,daring,32,6,up,0.942687988,2016_May_02_1042139,positive,neat,33,12,down,1.1277349,2016_May_02_1042139,negative,antisocial,34,20,down,1.058797121,2016_May_02_1042139,negative,critical,35,25,up,1.508738041,2016_May_02_1042139,negative,stubborn,36,36,up,1.209165096,2016_May_02_1042139,positive,moralistic,37,11,down,1.108518124,2016_May_02_1042139,negative,timid,38,37,down,2.493387938,2016_May_02_1042139,negative,withdrawn,39,38,down,1.508789063,2016_May_02_1042140,negative,timid,0,37,down,0.809860945,2016_May_02_1145140,negative,withdrawn,1,38,down,0.808962107,2016_May_02_1145140,positive,enterprising,2,8,up,0.891227007,2016_May_02_1145140,positive,enthusiastic,3,9,up,1.024635077,2016_May_02_1145140,positive,tidy,4,19,down,0.911083937,2016_May_02_1145140,positive,courageous,5,5,up,0.841104984,2016_May_02_1145140,positive,confident,6,4,up,1.20882988,2016_May_02_1145140,positive,brilliant,7,2,up,0.94214201,2016_May_02_1145140,positive,adventurous,8,0,up,0.808427811,2016_May_02_1145140,positive,moralistic,9,11,down,1.208396912,2016_May_02_1145140,positive,neat,10,12,down,1.260905981,2016_May_02_1145140,positive,decisive,11,7,up,0.675438166,2016_May_02_1145140,negative,conventional,12,24,down,0.841429949,2016_May_02_1145140,positive,frank,13,10,up,0.843574047,2016_May_02_1145140,positive,outgoing,14,14,up,0.559476137,2016_May_02_1145140,negative,stubborn,15,36,up,1.025987148,2016_May_02_1145140,negative,anxious,16,21,up,0.826169014,2016_May_02_1145140,positive,artistic,17,1,up,0.542281151,2016_May_02_1145140,positive,daring,18,6,up,0.676779032,2016_May_02_1145140,negative,moody,19,33,up,0.71026516,2016_May_02_1145140,negative,hesitant,20,28,down,1.442468166,2016_May_02_1145140,positive,obedient,21,13,down,2.276015043,2016_May_02_1145140,negative,shy,22,35,down,0.96112895,2016_May_02_1145140,negative,rebellious,23,34,up,0.991542101,2016_May_02_1145140,negative,cynical,24,26,up,0.842962027,2016_May_02_1145140,positive,sophisticated,25,17,up,0.740516901,2016_May_02_1145140,positive,quick,26,16,up,1.207901955,2016_May_02_1145140,positive,candid,27,3,up,0.892790794,2016_May_02_1145140,negative,lazy,28,31,down,1.188780069,2016_May_02_1145140,negative,indecisive,29,29,down,1.791749954,2016_May_02_1145140,negative,antisocial,30,20,down,1.491820097,2016_May_02_1145140,positive,tender,31,18,up,0.942623138,2016_May_02_1145140,negative,emotional,32,27,up,0.808928967,2016_May_02_1145140,negative,critical,33,25,up,0.742523193,2016_May_02_1145140,positive,proud,34,15,up,1.593002081,2016_May_02_1145140,negative,clumsy,35,23,up,0.960018158,2016_May_02_1145140,negative,messy,36,32,up,0.843526125,2016_May_02_1145140,negative,worrying,37,39,up,0.975924969,2016_May_02_1145140,negative,insecure,38,30,up,0.825921059,2016_May_02_1145140,negative,authoritative,39,22,up,0.991024017,2016_May_02_1145141,negative,lazy,0,31,up,0.775702,2016_May_03_1506141,negative,anxious,1,21,up,0.676254988,2016_May_03_1506141,negative,critical,2,25,up,0.592466831,2016_May_03_1506141,positive,candid,3,3,up,0.743329048,2016_May_03_1506141,negative,antisocial,4,20,down,0.724840879,2016_May_03_1506141,negative,clumsy,5,23,down,0.643127918,2016_May_03_1506141,positive,tender,6,18,up,0.592939854,2016_May_03_1506141,negative,hesitant,7,28,up,0.709112167,2016_May_03_1506141,negative,stubborn,8,36,up,0.626085997,2016_May_03_1506141,positive,enterprising,9,8,down,0.840955019,2016_May_03_1506141,positive,brilliant,10,2,up,0.758882999,2016_May_03_1506141,negative,worrying,11,39,up,0.659163952,2016_May_03_1506141,negative,authoritative,12,22,up,0.756963968,2016_May_03_1506141,positive,daring,13,6,up,0.726526022,2016_May_03_1506141,positive,tidy,14,19,up,0.777710199,2016_May_03_1506141,negative,cynical,15,26,up,0.709494114,2016_May_03_1506141,positive,sophisticated,16,17,down,0.974223137,2016_May_03_1506141,positive,adventurous,17,0,up,0.908154964,2016_May_03_1506141,positive,moralistic,18,11,up,0.958126068,2016_May_03_1506141,positive,confident,19,4,down,0.925544977,2016_May_03_1506141,positive,courageous,20,5,down,0.875133991,2016_May_03_1506141,positive,enthusiastic,21,9,down,0.941401005,2016_May_03_1506141,positive,quick,22,16,down,0.774772167,2016_May_03_1506141,negative,withdrawn,23,38,down,0.808529139,2016_May_03_1506141,negative,messy,24,32,down,0.876958132,2016_May_03_1506141,negative,shy,25,35,down,0.627742052,2016_May_03_1506141,negative,conventional,26,24,up,0.87450695,2016_May_03_1506141,negative,emotional,27,27,down,0.858880997,2016_May_03_1506141,negative,timid,28,37,down,0.6936481,2016_May_03_1506141,positive,obedient,29,13,down,0.95707202,2016_May_03_1506141,negative,insecure,30,30,down,0.742449045,2016_May_03_1506141,negative,moody,31,33,up,0.72705698,2016_May_03_1506141,positive,frank,32,10,up,0.943510056,2016_May_03_1506141,negative,rebellious,33,34,up,0.841962099,2016_May_03_1506141,positive,decisive,34,7,up,0.909353018,2016_May_03_1506141,negative,indecisive,35,29,down,0.807575226,2016_May_03_1506141,positive,neat,36,12,down,0.977564096,2016_May_03_1506141,positive,outgoing,37,14,up,1.241884947,2016_May_03_1506141,positive,proud,38,15,down,0.910329103,2016_May_03_1506141,positive,artistic,39,1,up,0.709224939,2016_May_03_1506142,positive,quick,0,16,up,0.790650845,2016_May_03_1524142,negative,insecure,1,30,up,0.842484951,2016_May_03_1524142,negative,shy,2,35,up,1.194287062,2016_May_03_1524142,negative,lazy,3,31,up,0.908909082,2016_May_03_1524142,negative,timid,4,37,up,0.792963982,2016_May_03_1524142,positive,enthusiastic,5,9,up,0.74098587,2016_May_03_1524142,negative,cynical,6,26,up,0.776169062,2016_May_03_1524142,negative,withdrawn,7,38,up,0.908778906,2016_May_03_1524142,positive,confident,8,4,down,1.075430155,2016_May_03_1524142,negative,critical,9,25,up,1.042340994,2016_May_03_1524142,positive,brilliant,10,2,down,0.958488941,2016_May_03_1524142,negative,worrying,11,39,up,1.358979225,2016_May_03_1524142,negative,messy,12,32,up,0.643414021,2016_May_03_1524142,positive,decisive,13,7,down,1.042423964,2016_May_03_1524142,positive,daring,14,6,down,0.909716845,2016_May_03_1524142,negative,authoritative,15,22,down,0.973330021,2016_May_03_1524142,positive,enterprising,16,8,down,0.874422073,2016_May_03_1524142,positive,moralistic,17,11,down,1.041416883,2016_May_03_1524142,negative,rebellious,18,34,down,0.808451891,2016_May_03_1524142,negative,conventional,19,24,up,3.023939848,2016_May_03_1524142,positive,candid,20,3,down,1.792901993,2016_May_03_1524142,negative,hesitant,21,28,up,1.008700132,2016_May_03_1524142,negative,moody,22,33,up,1.043326855,2016_May_03_1524142,negative,antisocial,23,20,down,1.258306026,2016_May_03_1524142,negative,indecisive,24,29,down,0.791887999,2016_May_03_1524142,positive,obedient,25,13,up,2.974794149,2016_May_03_1524142,positive,frank,26,10,down,2.01001811,2016_May_03_1524142,positive,artistic,27,1,down,1.05865407,2016_May_03_1524142,negative,anxious,28,21,up,1.209393024,2016_May_03_1524142,positive,tender,29,18,down,1.259593964,2016_May_03_1524142,positive,proud,30,15,down,1.609948874,2016_May_03_1524142,positive,tidy,31,19,down,0.794142962,2016_May_03_1524142,positive,adventurous,32,0,up,1.991122961,2016_May_03_1524142,negative,stubborn,33,36,up,1.125366926,2016_May_03_1524142,negative,clumsy,34,23,down,1.176375866,2016_May_03_1524142,positive,outgoing,35,14,up,3.158718109,2016_May_03_1524142,positive,courageous,36,5,down,1.158360004,2016_May_03_1524142,negative,emotional,37,27,up,1.174679995,2016_May_03_1524142,positive,sophisticated,38,17,down,1.02405405,2016_May_03_1524142,positive,neat,39,12,down,0.777108908,2016_May_03_1524143,negative,timid,0,37,up,1.743253946,2016_May_03_1532143,negative,emotional,1,27,up,0.958462,2016_May_03_1532143,negative,messy,2,32,down,1.293416977,2016_May_03_1532143,positive,quick,3,16,up,1.090790033,2016_May_03_1532143,negative,hesitant,4,28,up,1.241838932,2016_May_03_1532143,positive,adventurous,5,0,down,1.0081141,2016_May_03_1532143,negative,cynical,6,26,up,1.159258127,2016_May_03_1532143,negative,lazy,7,31,down,1.608210087,2016_May_03_1532143,positive,proud,8,15,up,2.659746885,2016_May_03_1532143,negative,worrying,9,39,down,2.275574923,2016_May_03_1532143,negative,shy,10,35,up,1.61014986,2016_May_03_1532143,negative,antisocial,11,20,down,2.891137838,2016_May_03_1532143,positive,sophisticated,12,17,up,0.990594864,2016_May_03_1532143,positive,neat,13,12,up,0.960916042,2016_May_03_1532143,negative,clumsy,14,23,down,0.959699869,2016_May_03_1532143,positive,decisive,15,7,up,1.891947031,2016_May_03_1532143,positive,tidy,16,19,up,0.927587032,2016_May_03_1532143,positive,obedient,17,13,down,2.275005102,2016_May_03_1532143,negative,moody,18,33,up,2.376556158,2016_May_03_1532143,negative,rebellious,19,34,down,1.174957991,2016_May_03_1532143,negative,conventional,20,24,up,1.407543898,2016_May_03_1532143,positive,brilliant,21,2,up,1.891587973,2016_May_03_1532143,negative,anxious,22,21,down,1.309303999,2016_May_03_1532143,positive,artistic,23,1,down,1.025736809,2016_May_03_1532