"Subj","Cond","Block","Trial","Order","quadrant","eye","face","emotion","Resp","Name","Stim","RT","Correct","Correct_numeric","Acuracy_fixed_mean","filter_.","ZRT","Outlire","emo1","emo2","trial.r"
1,1,1,1,14,1,1,1,1,30,"A         ","""mask8.avi (170x170)""",1381,"True ",1,0.9375,"Selected",-0.787483863,0,1,0,0
1,1,1,2,36,1,1,1,1,30,"A         ","""mask1.avi (170x170)""",1539,"True ",1,0.9375,"Selected",-0.592847384,0,1,0,1
1,1,1,3,50,1,1,1,2,30,"A         ","""mask1.avi (170x170)""",1042,"True ",1,0.9375,"Selected",-1.205089979,0,0,1,2
1,1,1,4,30,1,1,1,2,30,"A         ","""mask8.avi (170x170)""",2139,"True ",1,0.9375,"Selected",0.146278484,0,0,1,3
1,1,1,5,89,1,1,1,3,30,"A         ","""mask2.avi (170x170)""",2607,"True ",1,0.9375,"Selected",0.722796662,0,0,0,4
1,1,1,6,39,1,1,1,3,30,"A         ","""mask4.avi (170x170)""",1908,"True ",1,0.9375,"Selected",-0.138284975,0,0,0,5
1,1,1,7,41,1,1,2,1,30,"A         ","""mask4.avi (170x170)""",1563,"True ",1,0.9375,"Selected",-0.563282349,0,1,0,6
1,1,1,8,190,1,1,2,1,30,"A         ","""mask9.avi (170x170)""",3568,"True ",1,0.9375,"Selected",1.906629928,0,1,0,7
1,1,1,9,26,1,1,2,2,30,"A         ","""mask4.avi (170x170)""",1858,"True ",1,0.9375,"Selected",-0.199878797,0,0,1,8
1,1,1,10,57,1,1,2,2,30,"A         ","""mask2.avi (170x170)""",1180,"True ",1,0.9375,"Selected",-1.035091029,0,0,1,9
1,1,1,11,93,1,1,2,3,30,"A         ","""mask3.avi (170x170)""",1720,"True ",1,0.9375,"Selected",-0.369877747,0,0,0,10
1,1,1,13,85,1,1,3,1,30,"A         ","""mask4.avi (170x170)""",1876,"True ",1,0.9375,"Selected",-0.177705021,0,1,0,12
1,1,1,14,184,1,1,3,1,30,"A         ","""mask6.avi (170x170)""",1584,"True ",1,0.9375,"Selected",-0.537412944,0,1,0,13
1,1,1,15,197,1,1,3,2,30,"A         ","""mask4.avi (170x170)""",1592,"True ",1,0.9375,"Selected",-0.527557932,0,0,1,14
1,1,1,16,95,1,1,3,2,30,"A         ","""mask4.avi (170x170)""",1537,"True ",1,0.9375,"Selected",-0.595311137,0,0,1,15
1,1,1,17,186,1,1,3,3,30,"A         ","""mask7.avi (170x170)""",3298,"True ",1,0.9375,"Selected",1.574023287,0,0,0,16
1,1,1,18,63,1,1,3,3,30,"A         ","""mask7.avi (170x170)""",1701,"True ",1,0.9375,"Selected",-0.3932834,0,0,0,17
1,1,1,19,18,1,1,4,1,30,"A         ","""mask2.avi (170x170)""",1542,"True ",1,0.9375,"Selected",-0.589151755,0,1,0,18
1,1,1,20,58,1,1,4,1,30,"A         ","""mask2.avi (170x170)""",1649,"True ",1,0.9375,"Selected",-0.457340975,0,1,0,19
1,1,1,21,42,1,1,4,2,30,"A         ","""mask2.avi (170x170)""",1258,"True ",1,0.9375,"Selected",-0.939004666,0,0,1,20
1,1,1,22,194,1,1,4,2,30,"A         ","""mask7.avi (170x170)""",2660,"True ",1,0.9375,"Selected",0.788086114,0,0,1,21
1,1,1,23,20,1,1,4,3,30,"A         ","""mask7.avi (170x170)""",1566,"True ",1,0.9375,"Selected",-0.55958672,0,0,0,22
1,1,1,25,70,2,1,1,1,40,"APOSTROPHE","""mask5.avi (170x170)""",2573,"True ",1,0.9375,"Selected",0.680912863,0,1,0,24
1,1,1,26,113,2,1,1,1,40,"APOSTROPHE","""mask2.avi (170x170)""",1108,"True ",1,0.9375,"Selected",-1.123786133,0,1,0,25
1,1,1,27,109,2,1,1,2,40,"APOSTROPHE","""mask2.avi (170x170)""",2067,"True ",1,0.9375,"Selected",0.05758338,0,0,1,26
1,1,1,28,22,2,1,1,2,40,"APOSTROPHE","""mask8.avi (170x170)""",1202,"True ",1,0.9375,"Selected",-1.007989747,0,0,1,27
1,1,1,29,133,2,1,1,3,40,"APOSTROPHE","""mask4.avi (170x170)""",2609,"True ",1,0.9375,"Selected",0.725260415,0,0,0,28
1,1,1,30,103,2,1,1,3,40,"APOSTROPHE","""mask2.avi (170x170)""",1560,"True ",1,0.9375,"Selected",-0.566977979,0,0,0,29
1,1,1,31,67,2,1,2,1,40,"APOSTROPHE","""mask0.avi (170x170)""",2234,"True ",1,0.9375,"Selected",0.263306747,0,1,0,30
1,1,1,32,187,2,1,2,1,40,"APOSTROPHE","""mask2.avi (170x170)""",1734,"True ",1,0.9375,"Selected",-0.352631477,0,1,0,31
1,1,1,33,112,2,1,2,2,40,"APOSTROPHE","""mask3.avi (170x170)""",1806,"True ",1,0.9375,"Selected",-0.263936373,0,0,1,32
1,1,1,34,172,2,1,2,2,40,"APOSTROPHE","""mask2.avi (170x170)""",1495,"True ",1,0.9375,"Selected",-0.647049948,0,0,1,33
1,1,1,35,27,2,1,2,3,40,"APOSTROPHE","""mask1.avi (170x170)""",1398,"True ",1,0.9375,"Selected",-0.766541963,0,0,0,34
1,1,1,36,102,2,1,2,3,40,"APOSTROPHE","""mask6.avi (170x170)""",2449,"True ",1,0.9375,"Selected",0.528160183,0,0,0,35
1,1,1,37,129,2,1,3,1,40,"APOSTROPHE","""mask3.avi (170x170)""",2410,"True ",1,0.9375,"Selected",0.480117002,0,1,0,36
1,1,1,38,146,2,1,3,1,40,"APOSTROPHE","""mask4.avi (170x170)""",2741,"True ",1,0.9375,"Selected",0.887868106,0,1,0,37
1,1,1,39,156,2,1,3,2,40,"APOSTROPHE","""mask3.avi (170x170)""",1772,"True ",1,0.9375,"Selected",-0.305820172,0,0,1,38
1,1,1,40,122,2,1,3,2,40,"APOSTROPHE","""mask8.avi (170x170)""",3373,"True ",1,0.9375,"Selected",1.666414021,0,0,1,39
1,1,1,41,96,2,1,3,3,40,"APOSTROPHE","""mask3.avi (170x170)""",3685,"True ",1,0.9375,"Selected",2.050759473,0,0,0,40
1,1,1,43,56,2,1,4,1,40,"APOSTROPHE","""mask3.avi (170x170)""",1976,"True ",1,0.9375,"Selected",-0.054517377,0,1,0,42
1,1,1,44,107,2,1,4,1,40,"APOSTROPHE","""mask4.avi (170x170)""",1776,"True ",1,0.9375,"Selected",-0.300892666,0,1,0,43
1,1,1,46,31,2,1,4,2,40,"APOSTROPHE","""mask2.avi (170x170)""",1696,"True ",1,0.9375,"Selected",-0.399442782,0,0,1,45
1,1,1,47,198,2,1,4,3,40,"APOSTROPHE","""mask2.avi (170x170)""",1657,"True ",1,0.9375,"Selected",-0.447485963,0,0,0,46
1,1,1,48,73,2,1,4,3,40,"APOSTROPHE","""mask0.avi (170x170)""",1439,"True ",1,0.9375,"Selected",-0.716035029,0,0,0,47
1,1,1,49,13,3,1,1,1,53,"/         ","""mask5.avi (170x170)""",2206,"True ",1,0.9375,"Selected",0.228814206,0,1,0,48
1,1,1,50,29,3,1,1,1,53,"/         ","""mask3.avi (170x170)""",2275,"True ",1,0.9375,"Selected",0.313813681,0,1,0,49
1,1,1,51,165,3,1,1,2,53,"/         ","""mask6.avi (170x170)""",1496,"True ",1,0.9375,"Selected",-0.645818071,0,0,1,50
1,1,1,52,105,3,1,1,2,53,"/         ","""mask1.avi (170x170)""",2232,"True ",1,0.9375,"Selected",0.260842994,0,0,1,51
1,1,1,53,54,3,1,1,3,53,"/         ","""mask9.avi (170x170)""",2639,"True ",1,0.9375,"Selected",0.762216708,0,0,0,52
1,1,1,54,49,3,1,1,3,53,"/         ","""mask0.avi (170x170)""",2433,"True ",1,0.9375,"Selected",0.50845016,0,0,0,53
1,1,1,55,152,3,1,2,1,53,"/         ","""mask5.avi (170x170)""",3375,"True ",1,0.9375,"Selected",1.668877774,0,1,0,54
1,1,1,56,68,3,1,2,1,53,"/         ","""mask3.avi (170x170)""",2602,"True ",1,0.9375,"Selected",0.71663728,0,1,0,55
1,1,1,57,33,3,1,2,2,53,"/         ","""mask0.avi (170x170)""",1224,"True ",1,0.9375,"Selected",-0.980888465,0,0,1,56
1,1,1,58,45,3,1,2,2,53,"/         ","""mask6.avi (170x170)""",1555,"True ",1,0.9375,"Selected",-0.573137361,0,0,1,57
1,1,1,59,24,3,1,2,3,53,"/         ","""mask7.avi (170x170)""",2179,"True ",1,0.9375,"Selected",0.195553542,0,0,0,58
1,1,1,60,199,3,1,2,3,53,"/         ","""mask9.avi (170x170)""",2199,"True ",1,0.9375,"Selected",0.220191071,0,0,0,59
1,1,1,61,125,3,1,3,1,53,"/         ","""mask6.avi (170x170)""",2900,"True ",1,0.9375,"Selected",1.083736461,0,1,0,60
1,1,1,62,161,3,1,3,1,53,"/         ","""mask6.avi (170x170)""",2230,"True ",1,0.9375,"Selected",0.258379241,0,1,0,61
1,1,1,64,90,3,1,3,2,53,"/         ","""mask6.avi (170x170)""",1710,"True ",1,0.9375,"Selected",-0.382196512,0,0,1,63
1,1,1,65,71,3,1,3,3,53,"/         ","""mask5.avi (170x170)""",2522,"True ",1,0.9375,"Selected",0.618087164,0,0,0,64
1,1,1,66,162,3,1,3,3,53,"/         ","""mask7.avi (170x170)""",1377,"True ",1,0.9375,"Selected",-0.792411369,0,0,0,65
1,1,1,67,87,3,1,4,1,53,"/         ","""mask0.avi (170x170)""",2411,"True ",1,0.9375,"Selected",0.481348878,0,1,0,66
1,1,1,68,116,3,1,4,1,53,"/         ","""mask5.avi (170x170)""",1953,"True ",1,0.9375,"Selected",-0.082850535,0,1,0,67
1,1,1,69,159,3,1,4,2,53,"/         ","""mask9.avi (170x170)""",1495,"True ",1,0.9375,"Selected",-0.647049948,0,0,1,68
1,1,1,70,114,3,1,4,2,53,"/         ","""mask7.avi (170x170)""",1264,"True ",1,0.9375,"Selected",-0.931613407,0,0,1,69
1,1,1,71,72,3,1,4,3,53,"/         ","""mask6.avi (170x170)""",1018,"True ",1,0.9375,"Selected",-1.234655013,0,0,0,70
1,1,1,72,164,3,1,4,3,53,"/         ","""mask6.avi (170x170)""",1189,"True ",1,0.9375,"Selected",-1.024004141,0,0,0,71
1,1,1,73,149,4,1,1,1,44,"Z         ","""mask4.avi (170x170)""",3618,"True ",1,0.9375,"Selected",1.968223751,0,1,0,72
1,1,1,74,124,4,1,1,1,44,"Z         ","""mask0.avi (170x170)""",3777,"True ",1,0.9375,"Selected",2.164092106,0,1,0,73
1,1,1,75,91,4,1,1,2,44,"Z         ","""mask9.avi (170x170)""",2345,"True ",1,0.9375,"Selected",0.400045033,0,0,1,74
1,1,1,76,204,4,1,1,2,44,"Z         ","""mask2.avi (170x170)""",1433,"True ",1,0.9375,"Selected",-0.723426288,0,0,1,75
1,1,1,77,135,4,1,1,3,44,"Z         ","""mask7.avi (170x170)""",2644,"True ",1,0.9375,"Selected",0.768376091,0,0,0,76
1,1,1,78,167,4,1,1,3,44,"Z         ","""mask3.avi (170x170)""",1234,"True ",1,0.9375,"Selected",-0.968569701,0,0,0,77
1,1,1,79,78,4,1,2,1,44,"Z         ","""mask5.avi (170x170)""",2032,"True ",1,0.9375,"Selected",0.014467705,0,1,0,78
1,1,1,80,128,4,1,2,1,44,"Z         ","""mask4.avi (170x170)""",3555,"True ",1,0.9375,"Selected",1.890615534,0,1,0,79
1,1,1,82,55,4,1,2,2,44,"Z         ","""mask3.avi (170x170)""",1351,"True ",1,0.9375,"Selected",-0.824440156,0,0,1,81
1,1,1,85,134,4,1,3,1,44,"Z         ","""mask1.avi (170x170)""",2055,"True ",1,0.9375,"Selected",0.042800863,0,1,0,84
1,1,1,86,158,4,1,3,1,44,"Z         ","""mask7.avi (170x170)""",1498,"True ",1,0.9375,"Selected",-0.643354319,0,1,0,85
1,1,1,87,88,4,1,3,2,44,"Z         ","""mask7.avi (170x170)""",1969,"True ",1,0.9375,"Selected",-0.063140512,0,0,1,86
1,1,1,88,117,4,1,3,2,44,"Z         ","""mask1.avi (170x170)""",2257,"True ",1,0.9375,"Selected",0.291639905,0,0,1,87
1,1,1,90,16,4,1,3,3,44,"Z         ","""mask4.avi (170x170)""",2147,"True ",1,0.9375,"Selected",0.156133496,0,0,0,89
1,1,1,91,19,4,1,4,1,44,"Z         ","""mask9.avi (170x170)""",1297,"True ",1,0.9375,"Selected",-0.890961485,0,1,0,90
1,1,1,92,127,4,1,4,1,44,"Z         ","""mask5.avi (170x170)""",1463,"True ",1,0.9375,"Selected",-0.686469994,0,1,0,91
1,1,1,93,51,4,1,4,2,44,"Z         ","""mask2.avi (170x170)""",1673,"True ",1,0.9375,"Selected",-0.42777594,0,0,1,92
1,1,1,94,154,4,1,4,2,44,"Z         ","""mask7.avi (170x170)""",1777,"True ",1,0.9375,"Selected",-0.29966079,0,0,1,93
1,1,1,95,32,4,1,4,3,44,"Z         ","""mask8.avi (170x170)""",1571,"True ",1,0.9375,"Selected",-0.553427338,0,0,0,94
1,1,1,96,76,4,1,4,3,44,"Z         ","""mask4.avi (170x170)""",1514,"True ",1,0.9375,"Selected",-0.623644295,0,0,0,95
1,1,1,97,40,1,2,1,1,30,"A         ","""mask8.avi (170x170)""",2454,"True ",1,0.9375,"Selected",0.534319565,0,1,0,96
1,1,1,98,28,1,2,1,1,30,"A         ","""mask0.avi (170x170)""",1792,"True ",1,0.9375,"Selected",-0.281182643,0,1,0,97
1,1,1,100,183,1,2,1,2,30,"A         ","""mask2.avi (170x170)""",1509,"True ",1,0.9375,"Selected",-0.629803678,0,0,1,99
1,1,1,101,69,1,2,1,3,30,"A         ","""mask5.avi (170x170)""",1866,"True ",1,0.9375,"Selected",-0.190023786,0,0,0,100
1,1,1,102,200,1,2,1,3,30,"A         ","""mask6.avi (170x170)""",1015,"True ",1,0.9375,"Selected",-1.238350643,0,0,0,101
1,1,1,103,108,1,2,2,1,30,"A         ","""mask4.avi (170x170)""",1325,"True ",1,0.9375,"Selected",-0.856468944,0,1,0,102
1,1,1,104,21,1,2,2,1,30,"A         ","""mask7.avi (170x170)""",1452,"True ",1,0.9375,"Selected",-0.700020635,0,1,0,103
1,1,1,105,44,1,2,2,2,30,"A         ","""mask0.avi (170x170)""",1134,"True ",1,0.9375,"Selected",-1.091757346,0,0,1,104
1,1,1,106,173,1,2,2,2,30,"A         ","""mask5.avi (170x170)""",1043,"True ",1,0.9375,"Selected",-1.203858102,0,0,1,105
1,1,1,107,80,1,2,2,3,30,"A         ","""mask5.avi (170x170)""",1228,"True ",1,0.9375,"Selected",-0.975960959,0,0,0,106
1,1,1,108,35,1,2,2,3,30,"A         ","""mask6.avi (170x170)""",1724,"True ",1,0.9375,"Selected",-0.364950241,0,0,0,107
1,1,1,109,155,1,2,3,1,30,"A         ","""mask9.avi (170x170)""",1725,"True ",1,0.9375,"Selected",-0.363718365,0,1,0,108
1,1,1,110,106,1,2,3,1,30,"A         ","""mask0.avi (170x170)""",1329,"True ",1,0.9375,"Selected",-0.851541438,0,1,0,109
1,1,1,111,101,1,2,3,2,30,"A         ","""mask8.avi (170x170)""",1229,"True ",1,0.9375,"Selected",-0.974729083,0,0,1,110
1,1,1,112,66,1,2,3,2,30,"A         ","""mask7.avi (170x170)""",3512,"True ",1,0.9375,"Selected",1.837644847,0,0,1,111
1,1,1,113,138,1,2,3,3,30,"A         ","""mask1.avi (170x170)""",3144,"True ",1,0.9375,"Selected",1.384314314,0,0,0,112
1,1,1,114,137,1,2,3,3,30,"A         ","""mask3.avi (170x170)""",2539,"True ",1,0.9375,"Selected",0.639029063,0,0,0,113
1,1,1,115,34,1,2,4,1,30,"A         ","""mask5.avi (170x170)""",1555,"True ",1,0.9375,"Selected",-0.573137361,0,1,0,114
1,1,1,116,130,1,2,4,1,30,"A         ","""mask7.avi (170x170)""",1705,"True ",1,0.9375,"Selected",-0.388355894,0,1,0,115
1,1,1,117,120,1,2,4,2,30,"A         ","""mask8.avi (170x170)""",1921,"True ",1,0.9375,"Selected",-0.122270581,0,0,1,116
1,1,1,118,185,1,2,4,2,30,"A         ","""mask0.avi (170x170)""",1282,"True ",1,0.9375,"Selected",-0.909439631,0,0,1,117
1,1,1,119,166,1,2,4,3,30,"A         ","""mask6.avi (170x170)""",1381,"True ",1,0.9375,"Selected",-0.787483863,0,0,0,118
1,1,1,120,136,1,2,4,3,30,"A         ","""mask2.avi (170x170)""",1075,"True ",1,0.9375,"Selected",-1.164438056,0,0,0,119
1,1,1,121,195,2,2,1,1,40,"APOSTROPHE","""mask6.avi (170x170)""",3833,"True ",1,0.9375,"Selected",2.233077187,0,1,0,120
1,1,1,122,157,2,2,1,1,40,"APOSTROPHE","""mask0.avi (170x170)""",4345,"True ",1,0.9375,"Selected",2.863797928,0,1,0,121
1,1,1,123,60,2,2,1,2,40,"APOSTROPHE","""mask9.avi (170x170)""",1527,"True ",1,0.9375,"Selected",-0.607629902,0,0,1,122
1,1,1,124,180,2,2,1,2,40,"APOSTROPHE","""mask3.avi (170x170)""",1946,"True ",1,0.9375,"Selected",-0.09147367,0,0,1,123
1,1,1,125,148,2,2,1,3,40,"APOSTROPHE","""mask8.avi (170x170)""",1641,"True ",1,0.9375,"Selected",-0.467195987,0,0,0,124
1,1,1,126,132,2,2,1,3,40,"APOSTROPHE","""mask4.avi (170x170)""",799,"True ",1,0.9375,"Selected",-1.504435956,0,0,0,125
1,1,1,127,92,2,2,2,1,40,"APOSTROPHE","""mask0.avi (170x170)""",3131,"True ",1,0.9375,"Selected",1.368299921,0,1,0,126
1,1,1,128,143,2,2,2,1,40,"APOSTROPHE","""mask4.avi (170x170)""",1486,"True ",1,0.9375,"Selected",-0.658136836,0,1,0,127
1,1,1,129,83,2,2,2,2,40,"APOSTROPHE","""mask6.avi (170x170)""",1283,"True ",1,0.9375,"Selected",-0.908207755,0,0,1,128
1,1,1,131,174,2,2,2,3,40,"APOSTROPHE","""mask6.avi (170x170)""",1651,"True ",1,0.9375,"Selected",-0.454877222,0,0,0,130
1,1,1,132,171,2,2,2,3,40,"APOSTROPHE","""mask6.avi (170x170)""",1627,"True ",1,0.9375,"Selected",-0.484442257,0,0,0,131
1,1,1,133,53,2,2,3,1,40,"APOSTROPHE","""mask8.avi (170x170)""",2518,"True ",1,0.9375,"Selected",0.613159658,0,1,0,132
1,1,1,134,131,2,2,3,1,40,"APOSTROPHE","""mask8.avi (170x170)""",1491,"True ",1,0.9375,"Selected",-0.651977454,0,1,0,133
1,1,1,135,181,2,2,3,2,40,"APOSTROPHE","""mask7.avi (170x170)""",2444,"True ",1,0.9375,"Selected",0.522000801,0,0,1,134
1,1,1,136,65,2,2,3,2,40,"APOSTROPHE","""mask6.avi (170x170)""",1838,"True ",1,0.9375,"Selected",-0.224516326,0,0,1,135
1,1,1,137,46,2,2,3,3,40,"APOSTROPHE","""mask0.avi (170x170)""",3813,"True ",1,0.9375,"Selected",2.208439658,0,0,0,136
1,1,1,138,52,2,2,3,3,40,"APOSTROPHE","""mask3.avi (170x170)""",1298,"True ",1,0.9375,"Selected",-0.889729608,0,0,0,137
1,1,1,139,64,2,2,4,1,40,"APOSTROPHE","""mask9.avi (170x170)""",2208,"True ",1,0.9375,"Selected",0.231277959,0,1,0,138
1,1,1,140,150,2,2,4,1,40,"APOSTROPHE","""mask9.avi (170x170)""",2269,"True ",1,0.9375,"Selected",0.306422423,0,1,0,139
1,1,1,141,25,2,2,4,2,40,"APOSTROPHE","""mask0.avi (170x170)""",2544,"True ",1,0.9375,"Selected",0.645188446,0,0,1,140
1,1,1,142,77,2,2,4,2,40,"APOSTROPHE","""mask1.avi (170x170)""",1923,"True ",1,0.9375,"Selected",-0.119806828,0,0,1,141
1,1,1,143,139,2,2,4,3,40,"APOSTROPHE","""mask0.avi (170x170)""",1937,"True ",1,0.9375,"Selected",-0.102560558,0,0,0,142
1,1,1,144,182,2,2,4,3,40,"APOSTROPHE","""mask9.avi (170x170)""",1266,"True ",1,0.9375,"Selected",-0.929149654,0,0,0,143
1,1,1,145,175,3,2,1,1,53,"/         ","""mask8.avi (170x170)""",1898,"True ",1,0.9375,"Selected",-0.150603739,0,1,0,144
1,1,1,146,97,3,2,1,1,53,"/         ","""mask1.avi (170x170)""",3876,"True ",1,0.9375,"Selected",2.286047874,0,1,0,145
1,1,1,147,59,3,2,1,2,53,"/         ","""mask9.avi (170x170)""",1417,"True ",1,0.9375,"Selected",-0.743136311,0,0,1,146
1,1,1,148,82,3,2,1,2,53,"/         ","""mask2.avi (170x170)""",1354,"True ",1,0.9375,"Selected",-0.820744527,0,0,1,147
1,1,1,149,151,3,2,1,3,53,"/         ","""mask1.avi (170x170)""",3761,"True ",1,0.9375,"Selected",2.144382083,0,0,0,148
1,1,1,150,141,3,2,1,3,53,"/         ","""mask9.avi (170x170)""",4064,"True ",1,0.9375,"Selected",2.517640646,0,0,0,149
1,1,1,151,140,3,2,2,1,53,"/         ","""mask4.avi (170x170)""",3550,"True ",1,0.9375,"Selected",1.884456152,0,1,0,150
1,1,1,152,168,3,2,2,1,53,"/         ","""mask3.avi (170x170)""",1299,"True ",1,0.9375,"Selected",-0.888497732,0,1,0,151
1,1,1,153,75,3,2,2,2,53,"/         ","""mask1.avi (170x170)""",1542,"True ",1,0.9375,"Selected",-0.589151755,0,0,1,152
1,1,1,154,38,3,2,2,2,53,"/         ","""mask3.avi (170x170)""",2205,"True ",1,0.9375,"Selected",0.22758233,0,0,1,153
1,1,1,155,111,3,2,2,3,53,"/         ","""mask8.avi (170x170)""",3208,"True ",1,0.9375,"Selected",1.463154407,0,0,0,154
1,1,1,156,170,3,2,2,3,53,"/         ","""mask1.avi (170x170)""",3156,"True ",1,0.9375,"Selected",1.399096832,0,0,0,155
1,1,1,157,17,3,2,3,1,53,"/         ","""mask9.avi (170x170)""",1237,"True ",1,0.9375,"Selected",-0.964874071,0,1,0,156
1,1,1,158,189,3,2,3,1,53,"/         ","""mask3.avi (170x170)""",2230,"True ",1,0.9375,"Selected",0.258379241,0,1,0,157
1,1,1,159,144,3,2,3,2,53,"/         ","""mask3.avi (170x170)""",1157,"True ",1,0.9375,"Selected",-1.063424187,0,0,1,158
1,1,1,162,94,3,2,3,3,53,"/         ","""mask7.avi (170x170)""",3714,"True ",1,0.9375,"Selected",2.08648389,0,0,0,161
1,1,1,163,15,3,2,4,1,53,"/         ","""mask6.avi (170x170)""",1394,"True ",1,0.9375,"Selected",-0.771469469,0,1,0,162
1,1,1,164,74,3,2,4,1,53,"/         ","""mask9.avi (170x170)""",1408,"True ",1,0.9375,"Selected",-0.754223199,0,1,0,163
1,1,1,165,118,3,2,4,2,53,"/         ","""mask3.avi (170x170)""",2293,"True ",1,0.9375,"Selected",0.335987457,0,0,1,164
1,1,1,166,160,3,2,4,2,53,"/         ","""mask1.avi (170x170)""",2427,"True ",1,0.9375,"Selected",0.501058901,0,0,1,165
1,1,1,167,123,3,2,4,3,53,"/         ","""mask3.avi (170x170)""",1593,"True ",1,0.9375,"Selected",-0.526326056,0,0,0,166
1,1,1,168,47,3,2,4,3,53,"/         ","""mask1.avi (170x170)""",3175,"True ",1,0.9375,"Selected",1.422502484,0,0,0,167
1,1,1,169,126,4,2,1,1,44,"Z         ","""mask2.avi (170x170)""",1728,"True ",1,0.9375,"Selected",-0.360022736,0,1,0,168
1,1,1,170,48,4,2,1,1,44,"Z         ","""mask0.avi (170x170)""",3572,"True ",1,0.9375,"Selected",1.911557434,0,1,0,169
1,1,1,171,104,4,2,1,2,44,"Z         ","""mask7.avi (170x170)""",2880,"True ",1,0.9375,"Selected",1.059098932,0,0,1,170
1,1,1,172,61,4,2,1,2,44,"Z         ","""mask4.avi (170x170)""",3772,"True ",1,0.9375,"Selected",2.157932724,0,0,1,171
1,1,1,173,84,4,2,1,3,44,"Z         ","""mask2.avi (170x170)""",3066,"True ",1,0.9375,"Selected",1.288227951,0,0,0,172
1,1,1,174,81,4,2,1,3,44,"Z         ","""mask1.avi (170x170)""",1863,"True ",1,0.9375,"Selected",-0.193719415,0,0,0,173
1,1,1,175,23,4,2,2,1,44,"Z         ","""mask0.avi (170x170)""",2064,"True ",1,0.9375,"Selected",0.053887751,0,1,0,174
1,1,1,176,110,4,2,2,1,44,"Z         ","""mask5.avi (170x170)""",2222,"True ",1,0.9375,"Selected",0.24852423,0,1,0,175
1,1,1,177,179,4,2,2,2,44,"Z         ","""mask2.avi (170x170)""",1732,"True ",1,0.9375,"Selected",-0.35509523,0,0,1,176
1,1,1,178,202,4,2,2,2,44,"Z         ","""mask7.avi (170x170)""",1224,"True ",1,0.9375,"Selected",-0.980888465,0,0,1,177
1,1,1,179,79,4,2,2,3,44,"Z         ","""mask8.avi (170x170)""",1225,"True ",1,0.9375,"Selected",-0.979656589,0,0,0,178
1,1,1,180,62,4,2,2,3,44,"Z         ","""mask9.avi (170x170)""",2546,"True ",1,0.9375,"Selected",0.647652199,0,0,0,179
1,1,1,181,188,4,2,3,1,44,"Z         ","""mask5.avi (170x170)""",1067,"True ",1,0.9375,"Selected",-1.174293068,0,1,0,180
1,1,1,182,145,4,2,3,1,44,"Z         ","""mask8.avi (170x170)""",1645,"True ",1,0.9375,"Selected",-0.462268481,0,1,0,181
1,1,1,183,86,4,2,3,2,44,"Z         ","""mask1.avi (170x170)""",2045,"True ",1,0.9375,"Selected",0.030482098,0,0,1,182
1,1,1,184,169,4,2,3,2,44,"Z         ","""mask5.avi (170x170)""",1294,"True ",1,0.9375,"Selected",-0.894657114,0,0,1,183
1,1,1,185,147,4,2,3,3,44,"Z         ","""mask7.avi (170x170)""",1792,"True ",1,0.9375,"Selected",-0.281182643,0,0,0,184
1,1,1,186,98,4,2,3,3,44,"Z         ","""mask1.avi (170x170)""",1530,"True ",1,0.9375,"Selected",-0.603934272,0,0,0,185
1,1,1,187,178,4,2,4,1,44,"Z         ","""mask9.avi (170x170)""",996,"True ",1,0.9375,"Selected",-1.261756295,0,1,0,186
1,1,1,188,121,4,2,4,1,44,"Z         ","""mask5.avi (170x170)""",2497,"True ",1,0.9375,"Selected",0.587290253,0,1,0,187
1,1,1,189,176,4,2,4,2,44,"Z         ","""mask5.avi (170x170)""",1270,"True ",1,0.9375,"Selected",-0.924222149,0,0,1,188
1,1,1,190,37,4,2,4,2,44,"Z         ","""mask1.avi (170x170)""",1416,"True ",1,0.9375,"Selected",-0.744368187,0,0,1,189
1,1,1,191,192,4,2,4,3,44,"Z         ","""mask5.avi (170x170)""",1072,"True ",1,0.9375,"Selected",-1.168133685,0,0,0,190
1,1,1,192,191,4,2,4,3,44,"Z         ","""mask0.avi (170x170)""",1037,"True ",1,0.9375,"Selected",-1.211249361,0,0,0,191
4,1,1,1,66,1,1,1,1,30,"A         ","""mask8.avi (170x170)""",2154,"True ",1,0.984375,"Selected",0.480644574,0,1,0,0
4,1,1,2,120,1,1,1,1,30,"A         ","""mask1.avi (170x170)""",2036,"True ",1,0.984375,"Selected",0.321232661,0,1,0,1
4,1,1,3,166,1,1,1,2,30,"A         ","""mask1.avi (170x170)""",1805,"True ",1,0.984375,"Selected",0.009163576,0,0,1,2
4,1,1,4,204,1,1,1,2,30,"A         ","""mask8.avi (170x170)""",2222,"True ",1,0.984375,"Selected",0.572509066,0,0,1,3
4,1,1,5,112,1,1,1,3,30,"A         ","""mask2.avi (170x170)""",3716,"True ",1,0.984375,"Selected",2.590826003,0,0,0,4
4,1,1,6,46,1,1,1,3,30,"A         ","""mask4.avi (170x170)""",2385,"True ",1,0.984375,"Selected",0.792713658,0,0,0,5
4,1,1,7,59,1,1,2,1,30,"A         ","""mask4.avi (170x170)""",1776,"True ",1,0.984375,"Selected",-0.030013928,0,1,0,6
4,1,1,8,33,1,1,2,1,30,"A         ","""mask9.avi (170x170)""",1742,"True ",1,0.984375,"Selected",-0.075946174,0,1,0,7
4,1,1,9,140,1,1,2,2,30,"A         ","""mask4.avi (170x170)""",1397,"True ",1,0.984375,"Selected",-0.542023378,0,0,1,8
4,1,1,10,164,1,1,2,2,30,"A         ","""mask2.avi (170x170)""",2151,"True ",1,0.984375,"Selected",0.476591729,0,0,1,9
4,1,1,11,116,1,1,2,3,30,"A         ","""mask3.avi (170x170)""",1745,"True ",1,0.984375,"Selected",-0.071893329,0,0,0,10
4,1,1,12,96,1,1,2,3,30,"A         ","""mask0.avi (170x170)""",1197,"True ",1,0.984375,"Selected",-0.812213062,0,0,0,11
4,1,1,13,196,1,1,3,1,30,"A         ","""mask4.avi (170x170)""",1674,"True ",1,0.984375,"Selected",-0.167810667,0,1,0,12
4,1,1,14,203,1,1,3,1,30,"A         ","""mask6.avi (170x170)""",2768,"True ",1,0.984375,"Selected",1.310126903,0,1,0,13
4,1,1,15,184,1,1,3,2,30,"A         ","""mask4.avi (170x170)""",2379,"True ",1,0.984375,"Selected",0.784607968,0,0,1,14
4,1,1,17,13,1,1,3,3,30,"A         ","""mask7.avi (170x170)""",1402,"True ",1,0.984375,"Selected",-0.535268636,0,0,0,16
4,1,1,18,90,1,1,3,3,30,"A         ","""mask7.avi (170x170)""",3361,"True ",1,0.984375,"Selected",2.111239314,0,0,0,17
4,1,1,19,16,1,1,4,1,30,"A         ","""mask2.avi (170x170)""",1556,"True ",1,0.984375,"Selected",-0.32722258,0,1,0,18
4,1,1,20,177,1,1,4,1,30,"A         ","""mask2.avi (170x170)""",1380,"True ",1,0.984375,"Selected",-0.564989502,0,1,0,19
4,1,1,21,34,1,1,4,2,30,"A         ","""mask2.avi (170x170)""",1585,"True ",1,0.984375,"Selected",-0.288045076,0,0,1,20
4,1,1,22,142,1,1,4,2,30,"A         ","""mask7.avi (170x170)""",1731,"True ",1,0.984375,"Selected",-0.090806607,0,0,1,21
4,1,1,23,102,1,1,4,3,30,"A         ","""mask7.avi (170x170)""",2438,"True ",1,0.984375,"Selected",0.864313925,0,0,0,22
4,1,1,24,29,1,1,4,3,30,"A         ","""mask1.avi (170x170)""",1591,"True ",1,0.984375,"Selected",-0.279939385,0,0,0,23
4,1,1,25,77,2,1,1,1,40,"APOSTROPHE","""mask5.avi (170x170)""",3186,"True ",1,0.984375,"Selected",1.874823341,0,1,0,24
4,1,1,26,101,2,1,1,1,40,"APOSTROPHE","""mask2.avi (170x170)""",2318,"True ",1,0.984375,"Selected",0.702200114,0,1,0,25
4,1,1,27,45,2,1,1,2,40,"APOSTROPHE","""mask2.avi (170x170)""",1370,"True ",1,0.984375,"Selected",-0.578498986,0,0,1,26
4,1,1,28,39,2,1,1,2,40,"APOSTROPHE","""mask8.avi (170x170)""",1315,"True ",1,0.984375,"Selected",-0.652801149,0,0,1,27
4,1,1,29,105,2,1,1,3,40,"APOSTROPHE","""mask4.avi (170x170)""",3541,"True ",1,0.984375,"Selected",2.35441003,0,0,0,28
4,1,1,30,163,2,1,1,3,40,"APOSTROPHE","""mask2.avi (170x170)""",2889,"True ",1,0.984375,"Selected",1.473591661,0,0,0,29
4,1,1,31,98,2,1,2,1,40,"APOSTROPHE","""mask0.avi (170x170)""",1802,"True ",1,0.984375,"Selected",0.005110731,0,1,0,30
4,1,1,32,150,2,1,2,1,40,"APOSTROPHE","""mask2.avi (170x170)""",1712,"True ",1,0.984375,"Selected",-0.116474627,0,1,0,31
4,1,1,33,115,2,1,2,2,40,"APOSTROPHE","""mask3.avi (170x170)""",1500,"True ",1,0.984375,"Selected",-0.402875691,0,0,1,32
4,1,1,34,107,2,1,2,2,40,"APOSTROPHE","""mask2.avi (170x170)""",1328,"True ",1,0.984375,"Selected",-0.635238819,0,0,1,33
4,1,1,35,65,2,1,2,3,40,"APOSTROPHE","""mask1.avi (170x170)""",1834,"True ",1,0.984375,"Selected",0.04834108,0,0,0,34
4,1,1,36,159,2,1,2,3,40,"APOSTROPHE","""mask6.avi (170x170)""",1808,"True ",1,0.984375,"Selected",0.013216421,0,0,0,35
4,1,1,37,161,2,1,3,1,40,"APOSTROPHE","""mask3.avi (170x170)""",2536,"True ",1,0.984375,"Selected",0.99670687,0,1,0,36
4,1,1,40,41,2,1,3,2,40,"APOSTROPHE","""mask8.avi (170x170)""",1493,"True ",1,0.984375,"Selected",-0.41233233,0,0,1,39
4,1,1,41,43,2,1,3,3,40,"APOSTROPHE","""mask3.avi (170x170)""",2315,"True ",1,0.984375,"Selected",0.698147269,0,0,0,40
4,1,1,43,192,2,1,4,1,40,"APOSTROPHE","""mask3.avi (170x170)""",3830,"True ",1,0.984375,"Selected",2.744834122,0,1,0,42
4,1,1,44,32,2,1,4,1,40,"APOSTROPHE","""mask4.avi (170x170)""",1438,"True ",1,0.984375,"Selected",-0.486634493,0,1,0,43
4,1,1,45,125,2,1,4,2,40,"APOSTROPHE","""mask1.avi (170x170)""",1321,"True ",1,0.984375,"Selected",-0.644695458,0,0,1,44
4,1,1,46,141,2,1,4,2,40,"APOSTROPHE","""mask2.avi (170x170)""",1134,"True ",1,0.984375,"Selected",-0.897322812,0,0,1,45
4,1,1,47,170,2,1,4,3,40,"APOSTROPHE","""mask2.avi (170x170)""",2035,"True ",1,0.984375,"Selected",0.319881712,0,0,0,46
4,1,1,48,99,2,1,4,3,40,"APOSTROPHE","""mask0.avi (170x170)""",1370,"True ",1,0.984375,"Selected",-0.578498986,0,0,0,47
4,1,1,49,25,3,1,1,1,53,"/         ","""mask5.avi (170x170)""",3184,"True ",1,0.984375,"Selected",1.872121444,0,1,0,48
4,1,1,50,60,3,1,1,1,53,"/         ","""mask3.avi (170x170)""",1693,"True ",1,0.984375,"Selected",-0.142142647,0,1,0,49
4,1,1,51,54,3,1,1,2,53,"/         ","""mask6.avi (170x170)""",1193,"True ",1,0.984375,"Selected",-0.817616856,0,0,1,50
4,1,1,52,57,3,1,1,2,53,"/         ","""mask1.avi (170x170)""",1681,"True ",1,0.984375,"Selected",-0.158354028,0,0,1,51
4,1,1,54,64,3,1,1,3,53,"/         ","""mask0.avi (170x170)""",3034,"True ",1,0.984375,"Selected",1.669479182,0,0,0,53
4,1,1,55,49,3,1,2,1,53,"/         ","""mask5.avi (170x170)""",1145,"True ",1,0.984375,"Selected",-0.88246238,0,1,0,54
4,1,1,56,151,3,1,2,1,53,"/         ","""mask3.avi (170x170)""",1442,"True ",1,0.984375,"Selected",-0.4812307,0,1,0,55
4,1,1,57,165,3,1,2,2,53,"/         ","""mask0.avi (170x170)""",2106,"True ",1,0.984375,"Selected",0.41579905,0,0,1,56
4,1,1,58,97,3,1,2,2,53,"/         ","""mask6.avi (170x170)""",1350,"True ",1,0.984375,"Selected",-0.605517954,0,0,1,57
4,1,1,59,82,3,1,2,3,53,"/         ","""mask7.avi (170x170)""",1599,"True ",1,0.984375,"Selected",-0.269131798,0,0,0,58
4,1,1,60,188,3,1,2,3,53,"/         ","""mask9.avi (170x170)""",1979,"True ",1,0.984375,"Selected",0.244228601,0,0,0,59
4,1,1,61,63,3,1,3,1,53,"/         ","""mask6.avi (170x170)""",2845,"True ",1,0.984375,"Selected",1.414149931,0,1,0,60
4,1,1,62,156,3,1,3,1,53,"/         ","""mask6.avi (170x170)""",2424,"True ",1,0.984375,"Selected",0.845400647,0,1,0,61
4,1,1,64,85,3,1,3,2,53,"/         ","""mask6.avi (170x170)""",2022,"True ",1,0.984375,"Selected",0.302319383,0,0,1,63
4,1,1,65,162,3,1,3,3,53,"/         ","""mask5.avi (170x170)""",1341,"True ",1,0.984375,"Selected",-0.61767649,0,0,0,64
4,1,1,66,123,3,1,3,3,53,"/         ","""mask7.avi (170x170)""",2665,"True ",1,0.984375,"Selected",1.170979215,0,0,0,65
4,1,1,67,51,3,1,4,1,53,"/         ","""mask0.avi (170x170)""",1290,"True ",1,0.984375,"Selected",-0.686574859,0,1,0,66
4,1,1,68,180,3,1,4,1,53,"/         ","""mask5.avi (170x170)""",1347,"True ",1,0.984375,"Selected",-0.609570799,0,1,0,67
4,1,1,69,153,3,1,4,2,53,"/         ","""mask9.avi (170x170)""",1168,"True ",1,0.984375,"Selected",-0.851390566,0,0,1,68
4,1,1,70,183,3,1,4,2,53,"/         ","""mask7.avi (170x170)""",1345,"True ",1,0.984375,"Selected",-0.612272696,0,0,1,69
4,1,1,71,167,3,1,4,3,53,"/         ","""mask6.avi (170x170)""",2763,"True ",1,0.984375,"Selected",1.30337216,0,0,0,70
4,1,1,72,136,3,1,4,3,53,"/         ","""mask6.avi (170x170)""",1648,"True ",1,0.984375,"Selected",-0.202935326,0,0,0,71
4,1,1,73,191,4,1,1,1,44,"Z         ","""mask4.avi (170x170)""",3058,"True ",1,0.984375,"Selected",1.701901944,0,1,0,72
4,1,1,74,178,4,1,1,1,44,"Z         ","""mask0.avi (170x170)""",1426,"True ",1,0.984375,"Selected",-0.502845874,0,1,0,73
4,1,1,75,171,4,1,1,2,44,"Z         ","""mask9.avi (170x170)""",1475,"True ",1,0.984375,"Selected",-0.436649402,0,0,1,74
4,1,1,76,80,4,1,1,2,44,"Z         ","""mask2.avi (170x170)""",2239,"True ",1,0.984375,"Selected",0.595475189,0,0,1,75
4,1,1,77,56,4,1,1,3,44,"Z         ","""mask7.avi (170x170)""",1430,"True ",1,0.984375,"Selected",-0.497442081,0,0,0,76
4,1,1,78,195,4,1,1,3,44,"Z         ","""mask3.avi (170x170)""",2853,"True ",1,0.984375,"Selected",1.424957518,0,0,0,77
4,1,1,79,148,4,1,2,1,44,"Z         ","""mask5.avi (170x170)""",1202,"True ",1,0.984375,"Selected",-0.80545832,0,1,0,78
4,1,1,80,131,4,1,2,1,44,"Z         ","""mask4.avi (170x170)""",1377,"True ",1,0.984375,"Selected",-0.569042347,0,1,0,79
4,1,1,81,174,4,1,2,2,44,"Z         ","""mask9.avi (170x170)""",1681,"True ",1,0.984375,"Selected",-0.158354028,0,0,1,80
4,1,1,82,74,4,1,2,2,44,"Z         ","""mask3.avi (170x170)""",1689,"True ",1,0.984375,"Selected",-0.14754644,0,0,1,81
4,1,1,83,198,4,1,2,3,44,"Z         ","""mask8.avi (170x170)""",1069,"True ",1,0.984375,"Selected",-0.98513446,0,0,0,82
4,1,1,84,110,4,1,2,3,44,"Z         ","""mask9.avi (170x170)""",2237,"True ",1,0.984375,"Selected",0.592773293,0,0,0,83
4,1,1,85,197,4,1,3,1,44,"Z         ","""mask1.avi (170x170)""",1146,"True ",1,0.984375,"Selected",-0.881111431,0,1,0,84
4,1,1,86,21,4,1,3,1,44,"Z         ","""mask7.avi (170x170)""",1414,"True ",1,0.984375,"Selected",-0.519057255,0,1,0,85
4,1,1,87,23,4,1,3,2,44,"Z         ","""mask7.avi (170x170)""",1553,"True ",1,0.984375,"Selected",-0.331275425,0,0,1,86
4,1,1,88,155,4,1,3,2,44,"Z         ","""mask1.avi (170x170)""",2450,"True ",1,0.984375,"Selected",0.880525306,0,0,1,87
4,1,1,89,72,4,1,3,3,44,"Z         ","""mask5.avi (170x170)""",3926,"True ",1,0.984375,"Selected",2.87452517,0,0,0,88
4,1,1,90,127,4,1,3,3,44,"Z         ","""mask4.avi (170x170)""",2495,"True ",1,0.984375,"Selected",0.941317984,0,0,0,89
4,1,1,91,48,4,1,4,1,44,"Z         ","""mask9.avi (170x170)""",2042,"True ",1,0.984375,"Selected",0.329338351,0,1,0,90
4,1,1,92,173,4,1,4,1,44,"Z         ","""mask5.avi (170x170)""",1592,"True ",1,0.984375,"Selected",-0.278588437,0,1,0,91
4,1,1,93,67,4,1,4,2,44,"Z         ","""mask2.avi (170x170)""",1452,"True ",1,0.984375,"Selected",-0.467721215,0,0,1,92
4,1,1,94,89,4,1,4,2,44,"Z         ","""mask7.avi (170x170)""",2001,"True ",1,0.984375,"Selected",0.273949466,0,0,1,93
4,1,1,95,93,4,1,4,3,44,"Z         ","""mask8.avi (170x170)""",1901,"True ",1,0.984375,"Selected",0.138854624,0,0,0,94
4,1,1,96,69,4,1,4,3,44,"Z         ","""mask4.avi (170x170)""",1405,"True ",1,0.984375,"Selected",-0.531215791,0,0,0,95
4,1,1,97,28,1,2,1,1,30,"A         ","""mask8.avi (170x170)""",1359,"True ",1,0.984375,"Selected",-0.593359418,0,1,0,96
4,1,1,98,20,1,2,1,1,30,"A         ","""mask0.avi (170x170)""",1437,"True ",1,0.984375,"Selected",-0.487985442,0,1,0,97
4,1,1,99,42,1,2,1,2,30,"A         ","""mask8.avi (170x170)""",1034,"True ",1,0.984375,"Selected",-1.032417654,0,0,1,98
4,1,1,100,111,1,2,1,2,30,"A         ","""mask2.avi (170x170)""",1686,"True ",1,0.984375,"Selected",-0.151599286,0,0,1,99
4,1,1,101,100,1,2,1,3,30,"A         ","""mask5.avi (170x170)""",2577,"True ",1,0.984375,"Selected",1.052095755,0,0,0,100
4,1,1,102,135,1,2,1,3,30,"A         ","""mask6.avi (170x170)""",1040,"True ",1,0.984375,"Selected",-1.024311964,0,0,0,101
4,1,1,103,160,1,2,2,1,30,"A         ","""mask4.avi (170x170)""",1279,"True ",1,0.984375,"Selected",-0.701435292,0,1,0,102
4,1,1,104,157,1,2,2,1,30,"A         ","""mask7.avi (170x170)""",1178,"True ",1,0.984375,"Selected",-0.837881082,0,1,0,103
4,1,1,105,108,1,2,2,2,30,"A         ","""mask0.avi (170x170)""",1327,"True ",1,0.984375,"Selected",-0.636589768,0,0,1,104
4,1,1,106,68,1,2,2,2,30,"A         ","""mask5.avi (170x170)""",1656,"True ",1,0.984375,"Selected",-0.192127738,0,0,1,105
4,1,1,107,190,1,2,2,3,30,"A         ","""mask5.avi (170x170)""",1401,"True ",1,0.984375,"Selected",-0.536619585,0,0,0,106
4,1,1,108,114,1,2,2,3,30,"A         ","""mask6.avi (170x170)""",1905,"True ",1,0.984375,"Selected",0.144258418,0,0,0,107
4,1,1,109,113,1,2,3,1,30,"A         ","""mask9.avi (170x170)""",3052,"True ",1,0.984375,"Selected",1.693796253,0,1,0,108
4,1,1,110,78,1,2,3,1,30,"A         ","""mask0.avi (170x170)""",1515,"True ",1,0.984375,"Selected",-0.382611465,0,1,0,109
4,1,1,111,24,1,2,3,2,30,"A         ","""mask8.avi (170x170)""",1770,"True ",1,0.984375,"Selected",-0.038119619,0,0,1,110
4,1,1,112,38,1,2,3,2,30,"A         ","""mask7.avi (170x170)""",1524,"True ",1,0.984375,"Selected",-0.370452929,0,0,1,111
4,1,1,113,193,1,2,3,3,30,"A         ","""mask1.avi (170x170)""",2583,"True ",1,0.984375,"Selected",1.060201445,0,0,0,112
4,1,1,114,185,1,2,3,3,30,"A         ","""mask3.avi (170x170)""",2544,"True ",1,0.984375,"Selected",1.007514457,0,0,0,113
4,1,1,116,152,1,2,4,1,30,"A         ","""mask7.avi (170x170)""",1449,"True ",1,0.984375,"Selected",-0.471774061,0,1,0,115
4,1,1,117,88,1,2,4,2,30,"A         ","""mask8.avi (170x170)""",1340,"True ",1,0.984375,"Selected",-0.619027438,0,0,1,116
4,1,1,118,137,1,2,4,2,30,"A         ","""mask0.avi (170x170)""",1263,"True ",1,0.984375,"Selected",-0.723050466,0,0,1,117
4,1,1,119,124,1,2,4,3,30,"A         ","""mask6.avi (170x170)""",2683,"True ",1,0.984375,"Selected",1.195296287,0,0,0,118
4,1,1,120,134,1,2,4,3,30,"A         ","""mask2.avi (170x170)""",928,"True ",1,0.984375,"Selected",-1.175618186,0,0,0,119
4,1,1,121,200,2,2,1,1,40,"APOSTROPHE","""mask6.avi (170x170)""",1543,"True ",1,0.984375,"Selected",-0.344784909,0,1,0,120
4,1,1,122,87,2,2,1,1,40,"APOSTROPHE","""mask0.avi (170x170)""",1454,"True ",1,0.984375,"Selected",-0.465019319,0,1,0,121
4,1,1,123,146,2,2,1,2,40,"APOSTROPHE","""mask9.avi (170x170)""",1855,"True ",1,0.984375,"Selected",0.076710997,0,0,1,122
4,1,1,124,121,2,2,1,2,40,"APOSTROPHE","""mask3.avi (170x170)""",1277,"True ",1,0.984375,"Selected",-0.704137189,0,0,1,123
4,1,1,125,40,2,2,1,3,40,"APOSTROPHE","""mask8.avi (170x170)""",1276,"True ",1,0.984375,"Selected",-0.705488137,0,0,0,124
4,1,1,126,27,2,2,1,3,40,"APOSTROPHE","""mask4.avi (170x170)""",2646,"True ",1,0.984375,"Selected",1.145311196,0,0,0,125
4,1,1,127,202,2,2,2,1,40,"APOSTROPHE","""mask0.avi (170x170)""",1250,"True ",1,0.984375,"Selected",-0.740612796,0,1,0,126
4,1,1,128,133,2,2,2,1,40,"APOSTROPHE","""mask4.avi (170x170)""",1082,"True ",1,0.984375,"Selected",-0.96757213,0,1,0,127
4,1,1,129,117,2,2,2,2,40,"APOSTROPHE","""mask6.avi (170x170)""",1243,"True ",1,0.984375,"Selected",-0.750069435,0,0,1,128
4,1,1,130,119,2,2,2,2,40,"APOSTROPHE","""mask8.avi (170x170)""",1545,"True ",1,0.984375,"Selected",-0.342083013,0,0,1,129
4,1,1,131,194,2,2,2,3,40,"APOSTROPHE","""mask6.avi (170x170)""",1377,"True ",1,0.984375,"Selected",-0.569042347,0,0,0,130
4,1,1,132,30,2,2,2,3,40,"APOSTROPHE","""mask6.avi (170x170)""",1242,"True ",1,0.984375,"Selected",-0.751420383,0,0,0,131
4,1,1,133,50,2,2,3,1,40,"APOSTROPHE","""mask8.avi (170x170)""",1324,"True ",1,0.984375,"Selected",-0.640642613,0,1,0,132
4,1,1,134,132,2,2,3,1,40,"APOSTROPHE","""mask8.avi (170x170)""",1232,"True ",1,0.984375,"Selected",-0.764929867,0,1,0,133
4,1,1,135,95,2,2,3,2,40,"APOSTROPHE","""mask7.avi (170x170)""",1236,"True ",1,0.984375,"Selected",-0.759526074,0,0,1,134
4,1,1,136,44,2,2,3,2,40,"APOSTROPHE","""mask6.avi (170x170)""",1571,"True ",1,0.984375,"Selected",-0.306958354,0,0,1,135
4,1,1,137,144,2,2,3,3,40,"APOSTROPHE","""mask0.avi (170x170)""",2825,"True ",1,0.984375,"Selected",1.387130962,0,0,0,136
4,1,1,138,36,2,2,3,3,40,"APOSTROPHE","""mask3.avi (170x170)""",1248,"True ",1,0.984375,"Selected",-0.743314693,0,0,0,137
4,1,1,139,83,2,2,4,1,40,"APOSTROPHE","""mask9.avi (170x170)""",1416,"True ",1,0.984375,"Selected",-0.516355359,0,1,0,138
4,1,1,140,145,2,2,4,1,40,"APOSTROPHE","""mask9.avi (170x170)""",1708,"True ",1,0.984375,"Selected",-0.12187842,0,1,0,139
4,1,1,141,62,2,2,4,2,40,"APOSTROPHE","""mask0.avi (170x170)""",1045,"True ",1,0.984375,"Selected",-1.017557222,0,0,1,140
4,1,1,142,81,2,2,4,2,40,"APOSTROPHE","""mask1.avi (170x170)""",1367,"True ",1,0.984375,"Selected",-0.582551831,0,0,1,141
4,1,1,143,53,2,2,4,3,40,"APOSTROPHE","""mask0.avi (170x170)""",1131,"True ",1,0.984375,"Selected",-0.901375658,0,0,0,142
4,1,1,144,181,2,2,4,3,40,"APOSTROPHE","""mask9.avi (170x170)""",1213,"True ",1,0.984375,"Selected",-0.790597887,0,0,0,143
4,1,1,145,201,3,2,1,1,53,"/         ","""mask8.avi (170x170)""",3122,"True ",1,0.984375,"Selected",1.788362642,0,1,0,144
4,1,1,146,17,3,2,1,1,53,"/         ","""mask1.avi (170x170)""",2205,"True ",1,0.984375,"Selected",0.549542943,0,1,0,145
4,1,1,147,14,3,2,1,2,53,"/         ","""mask9.avi (170x170)""",865,"True ",1,0.984375,"Selected",-1.260727937,0,0,1,146
4,1,1,148,15,3,2,1,2,53,"/         ","""mask2.avi (170x170)""",964,"True ",1,0.984375,"Selected",-1.126984043,0,0,1,147
4,1,1,149,18,3,2,1,3,53,"/         ","""mask1.avi (170x170)""",1282,"True ",1,0.984375,"Selected",-0.697382447,0,0,0,148
4,1,1,150,86,3,2,1,3,53,"/         ","""mask9.avi (170x170)""",1338,"True ",1,0.984375,"Selected",-0.621729335,0,0,0,149
4,1,1,151,92,3,2,2,1,53,"/         ","""mask4.avi (170x170)""",1187,"True ",1,0.984375,"Selected",-0.825722546,0,1,0,150
4,1,1,152,179,3,2,2,1,53,"/         ","""mask3.avi (170x170)""",982,"True ",1,0.984375,"Selected",-1.102666972,0,1,0,151
4,1,1,153,187,3,2,2,2,53,"/         ","""mask1.avi (170x170)""",1143,"True ",1,0.984375,"Selected",-0.885164277,0,0,1,152
4,1,1,154,158,3,2,2,2,53,"/         ","""mask3.avi (170x170)""",1152,"True ",1,0.984375,"Selected",-0.873005741,0,0,1,153
4,1,1,155,35,3,2,2,3,53,"/         ","""mask8.avi (170x170)""",1158,"True ",1,0.984375,"Selected",-0.86490005,0,0,0,154
4,1,1,156,149,3,2,2,3,53,"/         ","""mask1.avi (170x170)""",1649,"True ",1,0.984375,"Selected",-0.201584377,0,0,0,155
4,1,1,157,168,3,2,3,1,53,"/         ","""mask9.avi (170x170)""",1210,"True ",1,0.984375,"Selected",-0.794650733,0,1,0,156
4,1,1,158,106,3,2,3,1,53,"/         ","""mask3.avi (170x170)""",1169,"True ",1,0.984375,"Selected",-0.850039618,0,1,0,157
4,1,1,159,189,3,2,3,2,53,"/         ","""mask3.avi (170x170)""",1960,"True ",1,0.984375,"Selected",0.218560581,0,0,1,158
4,1,1,160,91,3,2,3,2,53,"/         ","""mask5.avi (170x170)""",1572,"True ",1,0.984375,"Selected",-0.305607405,0,0,1,159
4,1,1,161,103,3,2,3,3,53,"/         ","""mask8.avi (170x170)""",1238,"True ",1,0.984375,"Selected",-0.756824177,0,0,0,160
4,1,1,162,128,3,2,3,3,53,"/         ","""mask7.avi (170x170)""",2580,"True ",1,0.984375,"Selected",1.0561486,0,0,0,161
4,1,1,163,52,3,2,4,1,53,"/         ","""mask6.avi (170x170)""",1234,"True ",1,0.984375,"Selected",-0.762227971,0,1,0,162
4,1,1,164,70,3,2,4,1,53,"/         ","""mask9.avi (170x170)""",981,"True ",1,0.984375,"Selected",-1.10401792,0,1,0,163
4,1,1,165,118,3,2,4,2,53,"/         ","""mask3.avi (170x170)""",1203,"True ",1,0.984375,"Selected",-0.804107372,0,0,1,164
4,1,1,166,94,3,2,4,2,53,"/         ","""mask1.avi (170x170)""",1306,"True ",1,0.984375,"Selected",-0.664959685,0,0,1,165
4,1,1,167,126,3,2,4,3,53,"/         ","""mask3.avi (170x170)""",1049,"True ",1,0.984375,"Selected",-1.012153428,0,0,0,166
4,1,1,168,175,3,2,4,3,53,"/         ","""mask1.avi (170x170)""",1433,"True ",1,0.984375,"Selected",-0.493389235,0,0,0,167
4,1,1,169,139,4,2,1,1,44,"Z         ","""mask2.avi (170x170)""",2196,"True ",1,0.984375,"Selected",0.537384407,0,1,0,168
4,1,1,170,71,4,2,1,1,44,"Z         ","""mask0.avi (170x170)""",2578,"True ",1,0.984375,"Selected",1.053446703,0,1,0,169
4,1,1,171,19,4,2,1,2,44,"Z         ","""mask7.avi (170x170)""",1226,"True ",1,0.984375,"Selected",-0.773035558,0,0,1,170
4,1,1,172,58,4,2,1,2,44,"Z         ","""mask4.avi (170x170)""",1050,"True ",1,0.984375,"Selected",-1.01080248,0,0,1,171
4,1,1,173,182,4,2,1,3,44,"Z         ","""mask2.avi (170x170)""",2458,"True ",1,0.984375,"Selected",0.891332893,0,0,0,172
4,1,1,174,186,4,2,1,3,44,"Z         ","""mask1.avi (170x170)""",2401,"True ",1,0.984375,"Selected",0.814328833,0,0,0,173
4,1,1,175,79,4,2,2,1,44,"Z         ","""mask0.avi (170x170)""",1348,"True ",1,0.984375,"Selected",-0.608219851,0,1,0,174
4,1,1,176,73,4,2,2,1,44,"Z         ","""mask5.avi (170x170)""",1403,"True ",1,0.984375,"Selected",-0.533917688,0,1,0,175
4,1,1,177,76,4,2,2,2,44,"Z         ","""mask2.avi (170x170)""",1393,"True ",1,0.984375,"Selected",-0.547427172,0,0,1,176
4,1,1,178,176,4,2,2,2,44,"Z         ","""mask7.avi (170x170)""",1307,"True ",1,0.984375,"Selected",-0.663608736,0,0,1,177
4,1,1,179,109,4,2,2,3,44,"Z         ","""mask8.avi (170x170)""",1887,"True ",1,0.984375,"Selected",0.119941346,0,0,0,178
4,1,1,180,37,4,2,2,3,44,"Z         ","""mask9.avi (170x170)""",935,"True ",1,0.984375,"Selected",-1.166161548,0,0,0,179
4,1,1,181,104,4,2,3,1,44,"Z         ","""mask5.avi (170x170)""",1927,"True ",1,0.984375,"Selected",0.173979283,0,1,0,180
4,1,1,182,31,4,2,3,1,44,"Z         ","""mask8.avi (170x170)""",1017,"True ",1,0.984375,"Selected",-1.055383777,0,1,0,181
4,1,1,183,169,4,2,3,2,44,"Z         ","""mask1.avi (170x170)""",1185,"True ",1,0.984375,"Selected",-0.828424443,0,0,1,182
4,1,1,184,143,4,2,3,2,44,"Z         ","""mask5.avi (170x170)""",2354,"True ",1,0.984375,"Selected",0.750834257,0,0,1,183
4,1,1,185,147,4,2,3,3,44,"Z         ","""mask7.avi (170x170)""",2331,"True ",1,0.984375,"Selected",0.719762444,0,0,0,184
4,1,1,186,172,4,2,3,3,44,"Z         ","""mask1.avi (170x170)""",1669,"True ",1,0.984375,"Selected",-0.174565409,0,0,0,185
4,1,1,187,55,4,2,4,1,44,"Z         ","""mask9.avi (170x170)""",908,"True ",1,0.984375,"Selected",-1.202637155,0,1,0,186
4,1,1,188,47,4,2,4,1,44,"Z         ","""mask5.avi (170x170)""",1083,"True ",1,0.984375,"Selected",-0.966221182,0,1,0,187
4,1,1,189,199,4,2,4,2,44,"Z         ","""mask5.avi (170x170)""",2330,"True ",1,0.984375,"Selected",0.718411495,0,0,1,188
4,1,1,190,26,4,2,4,2,44,"Z         ","""mask1.avi (170x170)""",1747,"True ",1,0.984375,"Selected",-0.069191432,0,0,1,189
4,1,1,191,75,4,2,4,3,44,"Z         ","""mask5.avi (170x170)""",2321,"True ",1,0.984375,"Selected",0.70625296,0,0,0,190
4,1,1,192,129,4,2,4,3,44,"Z         ","""mask0.avi (170x170)""",1169,"True ",1,0.984375,"Selected",-0.850039618,0,0,0,191
5,1,1,1,46,1,1,1,1,30,"A         ","""mask8.avi (170x170)""",3737,"True ",1,0.973958333,"Selected",1.054508486,0,1,0,0
5,1,1,2,162,1,1,1,1,30,"A         ","""mask1.avi (170x170)""",2522,"True ",1,0.973958333,"Selected",0.000987654,0,1,0,1
5,1,1,3,91,1,1,1,2,30,"A         ","""mask1.avi (170x170)""",2111,"True ",1,0.973958333,"Selected",-0.355388529,0,0,1,2
5,1,1,4,179,1,1,1,2,30,"A         ","""mask8.avi (170x170)""",1498,"True ",1,0.973958333,"Selected",-0.886917969,0,0,1,3
5,1,1,5,100,1,1,1,3,30,"A         ","""mask2.avi (170x170)""",4514,"True ",1,0.973958333,"Selected",1.728241562,0,0,0,4
5,1,1,6,198,1,1,1,3,30,"A         ","""mask4.avi (170x170)""",4773,"True ",1,0.973958333,"Selected",1.952819253,0,0,0,5
5,1,1,7,57,1,1,2,1,30,"A         ","""mask4.avi (170x170)""",3826,"True ",1,0.973958333,"Selected",1.131679971,0,1,0,6
5,1,1,8,74,1,1,2,1,30,"A         ","""mask9.avi (170x170)""",2211,"True ",1,0.973958333,"Selected",-0.268678995,0,1,0,7
5,1,1,9,117,1,1,2,2,30,"A         ","""mask4.avi (170x170)""",1731,"True ",1,0.973958333,"Selected",-0.684884756,0,0,1,8
5,1,1,10,102,1,1,2,2,30,"A         ","""mask2.avi (170x170)""",2588,"True ",1,0.973958333,"Selected",0.058215946,0,0,1,9
5,1,1,11,204,1,1,2,3,30,"A         ","""mask3.avi (170x170)""",1943,"True ",1,0.973958333,"Selected",-0.501060545,0,0,0,10
5,1,1,12,172,1,1,2,3,30,"A         ","""mask0.avi (170x170)""",1507,"True ",1,0.973958333,"Selected",-0.879114111,0,0,0,11
5,1,1,13,123,1,1,3,1,30,"A         ","""mask4.avi (170x170)""",2042,"True ",1,0.973958333,"Selected",-0.415218107,0,1,0,12
5,1,1,14,43,1,1,3,1,30,"A         ","""mask6.avi (170x170)""",1824,"True ",1,0.973958333,"Selected",-0.60424489,0,1,0,13
5,1,1,15,197,1,1,3,2,30,"A         ","""mask4.avi (170x170)""",1958,"True ",1,0.973958333,"Selected",-0.488054115,0,0,1,14
5,1,1,16,182,1,1,3,2,30,"A         ","""mask4.avi (170x170)""",1430,"True ",1,0.973958333,"Selected",-0.945880452,0,0,1,15
5,1,1,17,71,1,1,3,3,30,"A         ","""mask7.avi (170x170)""",3783,"True ",1,0.973958333,"Selected",1.094394872,0,0,0,16
5,1,1,18,63,1,1,3,3,30,"A         ","""mask7.avi (170x170)""",1653,"True ",1,0.973958333,"Selected",-0.752518192,0,0,0,17
5,1,1,19,130,1,1,4,1,30,"A         ","""mask2.avi (170x170)""",1755,"True ",1,0.973958333,"Selected",-0.664074468,0,1,0,18
5,1,1,20,143,1,1,4,1,30,"A         ","""mask2.avi (170x170)""",1590,"True ",1,0.973958333,"Selected",-0.807145198,0,1,0,19
5,1,1,22,180,1,1,4,2,30,"A         ","""mask7.avi (170x170)""",1391,"True ",1,0.973958333,"Selected",-0.97969717,0,0,1,21
5,1,1,23,129,1,1,4,3,30,"A         ","""mask7.avi (170x170)""",1545,"True ",1,0.973958333,"Selected",-0.846164488,0,0,0,22
5,1,1,24,199,1,1,4,3,30,"A         ","""mask1.avi (170x170)""",3152,"True ",1,0.973958333,"Selected",0.547257715,0,0,0,23
5,1,1,25,78,2,1,1,1,40,"APOSTROPHE","""mask5.avi (170x170)""",1226,"True ",1,0.973958333,"Selected",-1.1227679,0,1,0,24
5,1,1,26,133,2,1,1,1,40,"APOSTROPHE","""mask2.avi (170x170)""",1193,"True ",1,0.973958333,"Selected",-1.151382046,0,1,0,25
5,1,1,28,92,2,1,1,2,40,"APOSTROPHE","""mask8.avi (170x170)""",2409,"True ",1,0.973958333,"Selected",-0.096994119,0,0,1,27
5,1,1,29,28,2,1,1,3,40,"APOSTROPHE","""mask4.avi (170x170)""",2919,"True ",1,0.973958333,"Selected",0.345224502,0,0,0,28
5,1,1,30,19,2,1,1,3,40,"APOSTROPHE","""mask2.avi (170x170)""",2855,"True ",1,0.973958333,"Selected",0.289730401,0,0,0,29
5,1,1,31,15,2,1,2,1,40,"APOSTROPHE","""mask0.avi (170x170)""",1663,"True ",1,0.973958333,"Selected",-0.743847239,0,1,0,30
5,1,1,32,90,2,1,2,1,40,"APOSTROPHE","""mask2.avi (170x170)""",1378,"True ",1,0.973958333,"Selected",-0.990969409,0,1,0,31
5,1,1,33,181,2,1,2,2,40,"APOSTROPHE","""mask3.avi (170x170)""",1498,"True ",1,0.973958333,"Selected",-0.886917969,0,0,1,32
5,1,1,34,53,2,1,2,2,40,"APOSTROPHE","""mask2.avi (170x170)""",1263,"True ",1,0.973958333,"Selected",-1.090685373,0,0,1,33
5,1,1,35,119,2,1,2,3,40,"APOSTROPHE","""mask1.avi (170x170)""",2663,"True ",1,0.973958333,"Selected",0.123248096,0,0,0,34
5,1,1,36,170,2,1,2,3,40,"APOSTROPHE","""mask6.avi (170x170)""",1864,"True ",1,0.973958333,"Selected",-0.569561076,0,0,0,35
5,1,1,37,188,2,1,3,1,40,"APOSTROPHE","""mask3.avi (170x170)""",1509,"True ",1,0.973958333,"Selected",-0.87737992,0,1,0,36
5,1,1,38,65,2,1,3,1,40,"APOSTROPHE","""mask4.avi (170x170)""",2696,"True ",1,0.973958333,"Selected",0.151862242,0,1,0,37
5,1,1,39,192,2,1,3,2,40,"APOSTROPHE","""mask3.avi (170x170)""",1288,"True ",1,0.973958333,"Selected",-1.069007989,0,0,1,38
5,1,1,40,171,2,1,3,2,40,"APOSTROPHE","""mask8.avi (170x170)""",1994,"True ",1,0.973958333,"Selected",-0.456838683,0,0,1,39
5,1,1,41,76,2,1,3,3,40,"APOSTROPHE","""mask3.avi (170x170)""",3154,"True ",1,0.973958333,"Selected",0.548991906,0,0,0,40
5,1,1,42,138,2,1,3,3,40,"APOSTROPHE","""mask4.avi (170x170)""",2410,"True ",1,0.973958333,"Selected",-0.096127023,0,0,0,41
5,1,1,43,59,2,1,4,1,40,"APOSTROPHE","""mask3.avi (170x170)""",1480,"True ",1,0.973958333,"Selected",-0.902525685,0,1,0,42
5,1,1,44,151,2,1,4,1,40,"APOSTROPHE","""mask4.avi (170x170)""",1622,"True ",1,0.973958333,"Selected",-0.779398148,0,1,0,43
5,1,1,45,44,2,1,4,2,40,"APOSTROPHE","""mask1.avi (170x170)""",1242,"True ",1,0.973958333,"Selected",-1.108894375,0,0,1,44
5,1,1,46,116,2,1,4,2,40,"APOSTROPHE","""mask2.avi (170x170)""",1184,"True ",1,0.973958333,"Selected",-1.159185904,0,0,1,45
5,1,1,47,98,2,1,4,3,40,"APOSTROPHE","""mask2.avi (170x170)""",2503,"True ",1,0.973958333,"Selected",-0.015487157,0,0,0,46
5,1,1,48,108,2,1,4,3,40,"APOSTROPHE","""mask0.avi (170x170)""",2101,"True ",1,0.973958333,"Selected",-0.364059482,0,0,0,47
5,1,1,49,174,3,1,1,1,53,"/         ","""mask5.avi (170x170)""",2949,"True ",1,0.973958333,"Selected",0.371237362,0,1,0,48
5,1,1,50,165,3,1,1,1,53,"/         ","""mask3.avi (170x170)""",1585,"True ",1,0.973958333,"Selected",-0.811480675,0,1,0,49
5,1,1,51,150,3,1,1,2,53,"/         ","""mask6.avi (170x170)""",2879,"True ",1,0.973958333,"Selected",0.310540689,0,0,1,50
5,1,1,52,62,3,1,1,2,53,"/         ","""mask1.avi (170x170)""",2637,"True ",1,0.973958333,"Selected",0.100703618,0,0,1,51
5,1,1,53,60,3,1,1,3,53,"/         ","""mask9.avi (170x170)""",4497,"True ",1,0.973958333,"Selected",1.713500941,0,0,0,52
5,1,1,54,125,3,1,1,3,53,"/         ","""mask0.avi (170x170)""",1850,"True ",1,0.973958333,"Selected",-0.581700411,0,0,0,53
5,1,1,55,124,3,1,2,1,53,"/         ","""mask5.avi (170x170)""",1712,"True ",1,0.973958333,"Selected",-0.701359567,0,1,0,54
5,1,1,56,191,3,1,2,1,53,"/         ","""mask3.avi (170x170)""",1608,"True ",1,0.973958333,"Selected",-0.791537482,0,1,0,55
5,1,1,57,68,3,1,2,2,53,"/         ","""mask0.avi (170x170)""",1496,"True ",1,0.973958333,"Selected",-0.88865216,0,0,1,56
5,1,1,58,37,3,1,2,2,53,"/         ","""mask6.avi (170x170)""",2170,"True ",1,0.973958333,"Selected",-0.304229904,0,0,1,57
5,1,1,59,75,3,1,2,3,53,"/         ","""mask7.avi (170x170)""",2353,"True ",1,0.973958333,"Selected",-0.145551458,0,0,0,58
5,1,1,60,13,3,1,2,3,53,"/         ","""mask9.avi (170x170)""",1836,"True ",1,0.973958333,"Selected",-0.593839746,0,0,0,59
5,1,1,61,52,3,1,3,1,53,"/         ","""mask6.avi (170x170)""",1229,"True ",1,0.973958333,"Selected",-1.120166614,0,1,0,60
5,1,1,62,85,3,1,3,1,53,"/         ","""mask6.avi (170x170)""",1967,"True ",1,0.973958333,"Selected",-0.480250257,0,1,0,61
5,1,1,63,134,3,1,3,2,53,"/         ","""mask6.avi (170x170)""",1634,"True ",1,0.973958333,"Selected",-0.768993004,0,0,1,62
5,1,1,64,153,3,1,3,2,53,"/         ","""mask6.avi (170x170)""",1993,"True ",1,0.973958333,"Selected",-0.457705778,0,0,1,63
5,1,1,65,18,3,1,3,3,53,"/         ","""mask5.avi (170x170)""",2299,"True ",1,0.973958333,"Selected",-0.192374606,0,0,0,64
5,1,1,66,161,3,1,3,3,53,"/         ","""mask7.avi (170x170)""",4425,"True ",1,0.973958333,"Selected",1.651070077,0,0,0,65
5,1,1,67,79,3,1,4,1,53,"/         ","""mask0.avi (170x170)""",1437,"True ",1,0.973958333,"Selected",-0.939810785,0,1,0,66
5,1,1,68,109,3,1,4,1,53,"/         ","""mask5.avi (170x170)""",3505,"True ",1,0.973958333,"Selected",0.853342368,0,1,0,67
5,1,1,69,29,3,1,4,2,53,"/         ","""mask9.avi (170x170)""",1696,"True ",1,0.973958333,"Selected",-0.715233093,0,0,1,68
5,1,1,70,160,3,1,4,2,53,"/         ","""mask7.avi (170x170)""",1503,"True ",1,0.973958333,"Selected",-0.882582492,0,0,1,69
5,1,1,71,142,3,1,4,3,53,"/         ","""mask6.avi (170x170)""",1557,"True ",1,0.973958333,"Selected",-0.835759344,0,0,0,70
5,1,1,72,175,3,1,4,3,53,"/         ","""mask6.avi (170x170)""",1639,"True ",1,0.973958333,"Selected",-0.764657527,0,0,0,71
5,1,1,73,99,4,1,1,1,44,"Z         ","""mask4.avi (170x170)""",4065,"True ",1,0.973958333,"Selected",1.338915756,0,1,0,72
5,1,1,74,159,4,1,1,1,44,"Z         ","""mask0.avi (170x170)""",4851,"True ",1,0.973958333,"Selected",2.02045269,0,1,0,73
5,1,1,75,38,4,1,1,2,44,"Z         ","""mask9.avi (170x170)""",4104,"True ",1,0.973958333,"Selected",1.372732474,0,0,1,74
5,1,1,76,121,4,1,1,2,44,"Z         ","""mask2.avi (170x170)""",1712,"True ",1,0.973958333,"Selected",-0.701359567,0,0,1,75
5,1,1,77,186,4,1,1,3,44,"Z         ","""mask7.avi (170x170)""",4829,"True ",1,0.973958333,"Selected",2.001376592,0,0,0,76
5,1,1,78,164,4,1,1,3,44,"Z         ","""mask3.avi (170x170)""",5145,"True ",1,0.973958333,"Selected",2.275378718,0,0,0,77
5,1,1,79,115,4,1,2,1,44,"Z         ","""mask5.avi (170x170)""",3721,"True ",1,0.973958333,"Selected",1.040634961,0,1,0,78
5,1,1,80,67,4,1,2,1,44,"Z         ","""mask4.avi (170x170)""",1839,"True ",1,0.973958333,"Selected",-0.59123846,0,1,0,79
5,1,1,81,127,4,1,2,2,44,"Z         ","""mask9.avi (170x170)""",1409,"True ",1,0.973958333,"Selected",-0.964089454,0,0,1,80
5,1,1,82,126,4,1,2,2,44,"Z         ","""mask3.avi (170x170)""",1640,"True ",1,0.973958333,"Selected",-0.763790432,0,0,1,81
5,1,1,83,152,4,1,2,3,44,"Z         ","""mask8.avi (170x170)""",2601,"True ",1,0.973958333,"Selected",0.069488186,0,0,0,82
5,1,1,84,135,4,1,2,3,44,"Z         ","""mask9.avi (170x170)""",2099,"True ",1,0.973958333,"Selected",-0.365793673,0,0,0,83
5,1,1,86,167,4,1,3,1,44,"Z         ","""mask7.avi (170x170)""",2145,"True ",1,0.973958333,"Selected",-0.325907287,0,1,0,85
5,1,1,87,47,4,1,3,2,44,"Z         ","""mask7.avi (170x170)""",4358,"True ",1,0.973958333,"Selected",1.592974689,0,0,1,86
5,1,1,88,83,4,1,3,2,44,"Z         ","""mask1.avi (170x170)""",3400,"True ",1,0.973958333,"Selected",0.762297358,0,0,1,87
5,1,1,89,202,4,1,3,3,44,"Z         ","""mask5.avi (170x170)""",5482,"True ",1,0.973958333,"Selected",2.567589846,0,0,0,88
5,1,1,90,80,4,1,3,3,44,"Z         ","""mask4.avi (170x170)""",4214,"True ",1,0.973958333,"Selected",1.468112961,0,0,0,89
5,1,1,91,200,4,1,4,1,44,"Z         ","""mask9.avi (170x170)""",1505,"True ",1,0.973958333,"Selected",-0.880848302,0,1,0,90
5,1,1,92,120,4,1,4,1,44,"Z         ","""mask5.avi (170x170)""",2489,"True ",1,0.973958333,"Selected",-0.027626492,0,1,0,91
5,1,1,93,139,4,1,4,2,44,"Z         ","""mask2.avi (170x170)""",4008,"True ",1,0.973958333,"Selected",1.289491322,0,0,1,92
5,1,1,94,96,4,1,4,2,44,"Z         ","""mask7.avi (170x170)""",1639,"True ",1,0.973958333,"Selected",-0.764657527,0,0,1,93
5,1,1,95,93,4,1,4,3,44,"Z         ","""mask8.avi (170x170)""",5161,"True ",1,0.973958333,"Selected",2.289252243,0,0,0,94
5,1,1,96,25,4,1,4,3,44,"Z         ","""mask4.avi (170x170)""",5192,"True ",1,0.973958333,"Selected",2.316132199,0,0,0,95
5,1,1,97,69,1,2,1,1,30,"A         ","""mask8.avi (170x170)""",2252,"True ",1,0.973958333,"Selected",-0.233128086,0,1,0,96
5,1,1,98,84,1,2,1,1,30,"A         ","""mask0.avi (170x170)""",3240,"True ",1,0.973958333,"Selected",0.623562105,0,1,0,97
5,1,1,101,45,1,2,1,3,30,"A         ","""mask5.avi (170x170)""",2400,"True ",1,0.973958333,"Selected",-0.104797977,0,0,0,100
5,1,1,102,87,1,2,1,3,30,"A         ","""mask6.avi (170x170)""",2700,"True ",1,0.973958333,"Selected",0.155330624,0,0,0,101
5,1,1,103,173,1,2,2,1,30,"A         ","""mask4.avi (170x170)""",1366,"True ",1,0.973958333,"Selected",-1.001374553,0,1,0,102
5,1,1,104,140,1,2,2,1,30,"A         ","""mask7.avi (170x170)""",1518,"True ",1,0.973958333,"Selected",-0.869576062,0,1,0,103
5,1,1,105,114,1,2,2,2,30,"A         ","""mask0.avi (170x170)""",1370,"True ",1,0.973958333,"Selected",-0.997906172,0,0,1,104
5,1,1,106,34,1,2,2,2,30,"A         ","""mask5.avi (170x170)""",1392,"True ",1,0.973958333,"Selected",-0.978830075,0,0,1,105
5,1,1,107,193,1,2,2,3,30,"A         ","""mask5.avi (170x170)""",2167,"True ",1,0.973958333,"Selected",-0.30683119,0,0,0,106
5,1,1,108,183,1,2,2,3,30,"A         ","""mask6.avi (170x170)""",3034,"True ",1,0.973958333,"Selected",0.444940466,0,0,0,107
5,1,1,109,166,1,2,3,1,30,"A         ","""mask9.avi (170x170)""",1459,"True ",1,0.973958333,"Selected",-0.920734687,0,1,0,108
5,1,1,110,77,1,2,3,1,30,"A         ","""mask0.avi (170x170)""",1401,"True ",1,0.973958333,"Selected",-0.971026217,0,1,0,109
5,1,1,111,112,1,2,3,2,30,"A         ","""mask8.avi (170x170)""",1306,"True ",1,0.973958333,"Selected",-1.053400273,0,0,1,110
5,1,1,112,195,1,2,3,2,30,"A         ","""mask7.avi (170x170)""",1242,"True ",1,0.973958333,"Selected",-1.108894375,0,0,1,111
5,1,1,113,203,1,2,3,3,30,"A         ","""mask1.avi (170x170)""",3961,"True ",1,0.973958333,"Selected",1.248737841,0,0,0,112
5,1,1,114,58,1,2,3,3,30,"A         ","""mask3.avi (170x170)""",3562,"True ",1,0.973958333,"Selected",0.902766803,0,0,0,113
5,1,1,115,106,1,2,4,1,30,"A         ","""mask5.avi (170x170)""",2348,"True ",1,0.973958333,"Selected",-0.149886934,0,1,0,114
5,1,1,116,81,1,2,4,1,30,"A         ","""mask7.avi (170x170)""",2489,"True ",1,0.973958333,"Selected",-0.027626492,0,1,0,115
5,1,1,117,42,1,2,4,2,30,"A         ","""mask8.avi (170x170)""",1538,"True ",1,0.973958333,"Selected",-0.852234156,0,0,1,116
5,1,1,118,35,1,2,4,2,30,"A         ","""mask0.avi (170x170)""",1600,"True ",1,0.973958333,"Selected",-0.798474245,0,0,1,117
5,1,1,119,30,1,2,4,3,30,"A         ","""mask6.avi (170x170)""",1420,"True ",1,0.973958333,"Selected",-0.954551405,0,0,0,118
5,1,1,120,31,1,2,4,3,30,"A         ","""mask2.avi (170x170)""",1584,"True ",1,0.973958333,"Selected",-0.81234777,0,0,0,119
5,1,1,121,89,2,2,1,1,40,"APOSTROPHE","""mask6.avi (170x170)""",3513,"True ",1,0.973958333,"Selected",0.860279131,0,1,0,120
5,1,1,122,156,2,2,1,1,40,"APOSTROPHE","""mask0.avi (170x170)""",2901,"True ",1,0.973958333,"Selected",0.329616786,0,1,0,121
5,1,1,123,136,2,2,1,2,40,"APOSTROPHE","""mask9.avi (170x170)""",1376,"True ",1,0.973958333,"Selected",-0.9927036,0,0,1,122
5,1,1,124,141,2,2,1,2,40,"APOSTROPHE","""mask3.avi (170x170)""",1286,"True ",1,0.973958333,"Selected",-1.07074218,0,0,1,123
5,1,1,126,49,2,2,1,3,40,"APOSTROPHE","""mask4.avi (170x170)""",4761,"True ",1,0.973958333,"Selected",1.942414109,0,0,0,125
5,1,1,127,48,2,2,2,1,40,"APOSTROPHE","""mask0.avi (170x170)""",1620,"True ",1,0.973958333,"Selected",-0.781132338,0,1,0,126
5,1,1,128,132,2,2,2,1,40,"APOSTROPHE","""mask4.avi (170x170)""",2551,"True ",1,0.973958333,"Selected",0.026133419,0,1,0,127
5,1,1,129,185,2,2,2,2,40,"APOSTROPHE","""mask6.avi (170x170)""",1837,"True ",1,0.973958333,"Selected",-0.592972651,0,0,1,128
5,1,1,130,155,2,2,2,2,40,"APOSTROPHE","""mask8.avi (170x170)""",1545,"True ",1,0.973958333,"Selected",-0.846164488,0,0,1,129
5,1,1,131,187,2,2,2,3,40,"APOSTROPHE","""mask6.avi (170x170)""",4197,"True ",1,0.973958333,"Selected",1.45337234,0,0,0,130
5,1,1,132,73,2,2,2,3,40,"APOSTROPHE","""mask6.avi (170x170)""",1994,"True ",1,0.973958333,"Selected",-0.456838683,0,0,0,131
5,1,1,133,66,2,2,3,1,40,"APOSTROPHE","""mask8.avi (170x170)""",2269,"True ",1,0.973958333,"Selected",-0.218387466,0,1,0,132
5,1,1,134,168,2,2,3,1,40,"APOSTROPHE","""mask8.avi (170x170)""",3690,"True ",1,0.973958333,"Selected",1.013755005,0,1,0,133
5,1,1,135,144,2,2,3,2,40,"APOSTROPHE","""mask7.avi (170x170)""",1913,"True ",1,0.973958333,"Selected",-0.527073405,0,0,1,134
5,1,1,136,201,2,2,3,2,40,"APOSTROPHE","""mask6.avi (170x170)""",1301,"True ",1,0.973958333,"Selected",-1.05773575,0,0,1,135
5,1,1,137,137,2,2,3,3,40,"APOSTROPHE","""mask0.avi (170x170)""",4644,"True ",1,0.973958333,"Selected",1.840963955,0,0,0,136
5,1,1,138,39,2,2,3,3,40,"APOSTROPHE","""mask3.avi (170x170)""",2634,"True ",1,0.973958333,"Selected",0.098102332,0,0,0,137
5,1,1,139,149,2,2,4,1,40,"APOSTROPHE","""mask9.avi (170x170)""",2808,"True ",1,0.973958333,"Selected",0.24897692,0,1,0,138
5,1,1,140,55,2,2,4,1,40,"APOSTROPHE","""mask9.avi (170x170)""",2303,"True ",1,0.973958333,"Selected",-0.188906224,0,1,0,139
5,1,1,141,103,2,2,4,2,40,"APOSTROPHE","""mask0.avi (170x170)""",1327,"True ",1,0.973958333,"Selected",-1.035191271,0,0,1,140
5,1,1,142,184,2,2,4,2,40,"APOSTROPHE","""mask1.avi (170x170)""",3937,"True ",1,0.973958333,"Selected",1.227927553,0,0,1,141
5,1,1,143,147,2,2,4,3,40,"APOSTROPHE","""mask0.avi (170x170)""",1490,"True ",1,0.973958333,"Selected",-0.893854732,0,0,0,142
5,1,1,144,27,2,2,4,3,40,"APOSTROPHE","""mask9.avi (170x170)""",1979,"True ",1,0.973958333,"Selected",-0.469845113,0,0,0,143
5,1,1,145,176,3,2,1,1,53,"/         ","""mask8.avi (170x170)""",4495,"True ",1,0.973958333,"Selected",1.71176675,0,1,0,144
5,1,1,146,94,3,2,1,1,53,"/         ","""mask1.avi (170x170)""",4086,"True ",1,0.973958333,"Selected",1.357124758,0,1,0,145
5,1,1,147,105,3,2,1,2,53,"/         ","""mask9.avi (170x170)""",2875,"True ",1,0.973958333,"Selected",0.307072307,0,0,1,146
5,1,1,148,24,3,2,1,2,53,"/         ","""mask2.avi (170x170)""",1929,"True ",1,0.973958333,"Selected",-0.51319988,0,0,1,147
5,1,1,149,26,3,2,1,3,53,"/         ","""mask1.avi (170x170)""",2064,"True ",1,0.973958333,"Selected",-0.396142009,0,0,0,148
5,1,1,150,64,3,2,1,3,53,"/         ","""mask9.avi (170x170)""",4473,"True ",1,0.973958333,"Selected",1.692690653,0,0,0,149
5,1,1,151,50,3,2,2,1,53,"/         ","""mask4.avi (170x170)""",2528,"True ",1,0.973958333,"Selected",0.006190226,0,1,0,150
5,1,1,152,163,3,2,2,1,53,"/         ","""mask3.avi (170x170)""",1361,"True ",1,0.973958333,"Selected",-1.00571003,0,1,0,151
5,1,1,153,154,3,2,2,2,53,"/         ","""mask1.avi (170x170)""",1643,"True ",1,0.973958333,"Selected",-0.761189146,0,0,1,152
5,1,1,154,22,3,2,2,2,53,"/         ","""mask3.avi (170x170)""",1386,"True ",1,0.973958333,"Selected",-0.984032647,0,0,1,153
5,1,1,155,41,3,2,2,3,53,"/         ","""mask8.avi (170x170)""",2374,"True ",1,0.973958333,"Selected",-0.127342456,0,0,0,154
5,1,1,156,194,3,2,2,3,53,"/         ","""mask1.avi (170x170)""",3301,"True ",1,0.973958333,"Selected",0.67645492,0,0,0,155
5,1,1,157,61,3,2,3,1,53,"/         ","""mask9.avi (170x170)""",2276,"True ",1,0.973958333,"Selected",-0.212317798,0,1,0,156
5,1,1,158,16,3,2,3,1,53,"/         ","""mask3.avi (170x170)""",2411,"True ",1,0.973958333,"Selected",-0.095259928,0,1,0,157
5,1,1,159,145,3,2,3,2,53,"/         ","""mask3.avi (170x170)""",3033,"True ",1,0.973958333,"Selected",0.44407337,0,0,1,158
5,1,1,160,113,3,2,3,2,53,"/         ","""mask5.avi (170x170)""",1421,"True ",1,0.973958333,"Selected",-0.95368431,0,0,1,159
5,1,1,161,56,3,2,3,3,53,"/         ","""mask8.avi (170x170)""",5265,"True ",1,0.973958333,"Selected",2.379430158,0,0,0,160
5,1,1,162,40,3,2,3,3,53,"/         ","""mask7.avi (170x170)""",2738,"True ",1,0.973958333,"Selected",0.188280246,0,0,0,161
5,1,1,163,23,3,2,4,1,53,"/         ","""mask6.avi (170x170)""",1701,"True ",1,0.973958333,"Selected",-0.710897616,0,1,0,162
5,1,1,164,20,3,2,4,1,53,"/         ","""mask9.avi (170x170)""",1988,"True ",1,0.973958333,"Selected",-0.462041255,0,1,0,163
5,1,1,165,82,3,2,4,2,53,"/         ","""mask3.avi (170x170)""",1472,"True ",1,0.973958333,"Selected",-0.909462448,0,0,1,164
5,1,1,166,36,3,2,4,2,53,"/         ","""mask1.avi (170x170)""",2273,"True ",1,0.973958333,"Selected",-0.214919084,0,0,1,165
5,1,1,167,14,3,2,4,3,53,"/         ","""mask3.avi (170x170)""",1349,"True ",1,0.973958333,"Selected",-1.016115174,0,0,0,166
5,1,1,168,88,3,2,4,3,53,"/         ","""mask1.avi (170x170)""",3080,"True ",1,0.973958333,"Selected",0.484826851,0,0,0,167
5,1,1,169,33,4,2,1,1,44,"Z         ","""mask2.avi (170x170)""",3120,"True ",1,0.973958333,"Selected",0.519510664,0,1,0,168
5,1,1,170,157,4,2,1,1,44,"Z         ","""mask0.avi (170x170)""",5449,"True ",1,0.973958333,"Selected",2.5389757,0,1,0,169
5,1,1,171,104,4,2,1,2,44,"Z         ","""mask7.avi (170x170)""",3045,"True ",1,0.973958333,"Selected",0.454478514,0,0,1,170
5,1,1,172,101,4,2,1,2,44,"Z         ","""mask4.avi (170x170)""",3297,"True ",1,0.973958333,"Selected",0.672986539,0,0,1,171
5,1,1,173,70,4,2,1,3,44,"Z         ","""mask2.avi (170x170)""",4880,"True ",1,0.973958333,"Selected",2.045598454,0,0,0,172
5,1,1,174,128,4,2,1,3,44,"Z         ","""mask1.avi (170x170)""",4951,"True ",1,0.973958333,"Selected",2.107162223,0,0,0,173
5,1,1,175,196,4,2,2,1,44,"Z         ","""mask0.avi (170x170)""",2017,"True ",1,0.973958333,"Selected",-0.43689549,0,1,0,174
5,1,1,176,17,4,2,2,1,44,"Z         ","""mask5.avi (170x170)""",1425,"True ",1,0.973958333,"Selected",-0.950215929,0,1,0,175
5,1,1,177,158,4,2,2,2,44,"Z         ","""mask2.avi (170x170)""",1965,"True ",1,0.973958333,"Selected",-0.481984448,0,0,1,176
5,1,1,178,107,4,2,2,2,44,"Z         ","""mask7.avi (170x170)""",1486,"True ",1,0.973958333,"Selected",-0.897323113,0,0,1,177
5,1,1,179,169,4,2,2,3,44,"Z         ","""mask8.avi (170x170)""",4281,"True ",1,0.973958333,"Selected",1.526208349,0,0,0,178
5,1,1,180,111,4,2,2,3,44,"Z         ","""mask9.avi (170x170)""",3832,"True ",1,0.973958333,"Selected",1.136882543,0,0,0,179
5,1,1,181,97,4,2,3,1,44,"Z         ","""mask5.avi (170x170)""",2088,"True ",1,0.973958333,"Selected",-0.375331721,0,1,0,180
5,1,1,182,122,4,2,3,1,44,"Z         ","""mask8.avi (170x170)""",2954,"True ",1,0.973958333,"Selected",0.375572839,0,1,0,181
5,1,1,183,32,4,2,3,2,44,"Z         ","""mask1.avi (170x170)""",1980,"True ",1,0.973958333,"Selected",-0.468978018,0,0,1,182
5,1,1,184,72,4,2,3,2,44,"Z         ","""mask5.avi (170x170)""",1473,"True ",1,0.973958333,"Selected",-0.908595352,0,0,1,183
5,1,1,185,131,4,2,3,3,44,"Z         ","""mask7.avi (170x170)""",4259,"True ",1,0.973958333,"Selected",1.507132251,0,0,0,184
5,1,1,186,95,4,2,3,3,44,"Z         ","""mask1.avi (170x170)""",4140,"True ",1,0.973958333,"Selected",1.403947906,0,0,0,185
5,1,1,187,51,4,2,4,1,44,"Z         ","""mask9.avi (170x170)""",3118,"True ",1,0.973958333,"Selected",0.517776474,0,1,0,186
5,1,1,188,86,4,2,4,1,44,"Z         ","""mask5.avi (170x170)""",2726,"True ",1,0.973958333,"Selected",0.177875102,0,1,0,187
5,1,1,189,146,4,2,4,2,44,"Z         ","""mask5.avi (170x170)""",2233,"True ",1,0.973958333,"Selected",-0.249602898,0,0,1,188
5,1,1,190,118,4,2,4,2,44,"Z         ","""mask1.avi (170x170)""",1888,"True ",1,0.973958333,"Selected",-0.548750788,0,0,1,189
5,1,1,191,110,4,2,4,3,44,"Z         ","""mask5.avi (170x170)""",2971,"True ",1,0.973958333,"Selected",0.39031346,0,0,0,190
5,1,1,192,21,4,2,4,3,44,"Z         ","""mask0.avi (170x170)""",1830,"True ",1,0.973958333,"Selected",-0.599042318,0,0,0,191
7,1,1,1,135,1,1,1,1,30,"A         ","""mask8.avi (170x170)""",2047,"True ",1,0.901041667,"Selected",0.057763615,0,1,0,0
7,1,1,2,123,1,1,1,1,30,"A         ","""mask1.avi (170x170)""",3387,"True ",1,0.901041667,"Selected",1.630002804,0,1,0,1
7,1,1,3,64,1,1,1,2,30,"A         ","""mask1.avi (170x170)""",1701,"True ",1,0.901041667,"Selected",-0.348202624,0,0,1,2
7,1,1,4,85,1,1,1,2,30,"A         ","""mask8.avi (170x170)""",2515,"True ",1,0.901041667,"Selected",0.606874018,0,0,1,3
7,1,1,7,136,1,1,2,1,30,"A         ","""mask4.avi (170x170)""",2503,"True ",1,0.901041667,"Selected",0.592794264,0,1,0,6
7,1,1,8,39,1,1,2,1,30,"A         ","""mask9.avi (170x170)""",1506,"True ",1,0.901041667,"Selected",-0.576998625,0,1,0,7
7,1,1,9,164,1,1,2,2,30,"A         ","""mask4.avi (170x170)""",1352,"True ",1,0.901041667,"Selected",-0.757688801,0,0,1,8
7,1,1,10,68,1,1,2,2,30,"A         ","""mask2.avi (170x170)""",1908,"True ",1,0.901041667,"Selected",-0.105326868,0,0,1,9
7,1,1,11,201,1,1,2,3,30,"A         ","""mask3.avi (170x170)""",2792,"True ",1,0.901041667,"Selected",0.931881672,0,0,0,10
7,1,1,12,148,1,1,2,3,30,"A         ","""mask0.avi (170x170)""",1520,"True ",1,0.901041667,"Selected",-0.560572246,0,0,0,11
7,1,1,13,117,1,1,3,1,30,"A         ","""mask4.avi (170x170)""",2304,"True ",1,0.901041667,"Selected",0.359305012,0,1,0,12
7,1,1,15,73,1,1,3,2,30,"A         ","""mask4.avi (170x170)""",2377,"True ",1,0.901041667,"Selected",0.444956848,0,0,1,14
7,1,1,16,118,1,1,3,2,30,"A         ","""mask4.avi (170x170)""",1733,"True ",1,0.901041667,"Selected",-0.310656613,0,0,1,15
7,1,1,17,129,1,1,3,3,30,"A         ","""mask7.avi (170x170)""",3341,"True ",1,0.901041667,"Selected",1.576030414,0,0,0,16
7,1,1,18,111,1,1,3,3,30,"A         ","""mask7.avi (170x170)""",1515,"True ",1,0.901041667,"Selected",-0.56643881,0,0,0,17
7,1,1,19,202,1,1,4,1,30,"A         ","""mask2.avi (170x170)""",1844,"True ",1,0.901041667,"Selected",-0.180418889,0,1,0,18
7,1,1,20,153,1,1,4,1,30,"A         ","""mask2.avi (170x170)""",1548,"True ",1,0.901041667,"Selected",-0.527719486,0,1,0,19
7,1,1,21,74,1,1,4,2,30,"A         ","""mask2.avi (170x170)""",2454,"True ",1,0.901041667,"Selected",0.535301936,0,0,1,20
7,1,1,22,159,1,1,4,2,30,"A         ","""mask7.avi (170x170)""",1323,"True ",1,0.901041667,"Selected",-0.791714873,0,0,1,21
7,1,1,23,35,1,1,4,3,30,"A         ","""mask7.avi (170x170)""",3242,"True ",1,0.901041667,"Selected",1.459872444,0,0,0,22
7,1,1,24,106,1,1,4,3,30,"A         ","""mask1.avi (170x170)""",1705,"True ",1,0.901041667,"Selected",-0.343509372,0,0,0,23
7,1,1,25,48,2,1,1,1,40,"APOSTROPHE","""mask5.avi (170x170)""",1618,"True ",1,0.901041667,"Selected",-0.445587588,0,1,0,24
7,1,1,26,175,2,1,1,1,40,"APOSTROPHE","""mask2.avi (170x170)""",2524,"True ",1,0.901041667,"Selected",0.617433834,0,1,0,25
7,1,1,27,163,2,1,1,2,40,"APOSTROPHE","""mask2.avi (170x170)""",1252,"True ",1,0.901041667,"Selected",-0.875020084,0,0,1,26
7,1,1,28,145,2,1,1,2,40,"APOSTROPHE","""mask8.avi (170x170)""",2747,"True ",1,0.901041667,"Selected",0.879082594,0,0,1,27
7,1,1,30,57,2,1,1,3,40,"APOSTROPHE","""mask2.avi (170x170)""",3490,"True ",1,0.901041667,"Selected",1.750854026,0,0,0,29
7,1,1,31,105,2,1,2,1,40,"APOSTROPHE","""mask0.avi (170x170)""",1793,"True ",1,0.901041667,"Selected",-0.240257844,0,1,0,30
7,1,1,32,78,2,1,2,1,40,"APOSTROPHE","""mask2.avi (170x170)""",1205,"True ",1,0.901041667,"Selected",-0.930165786,0,1,0,31
7,1,1,33,88,2,1,2,2,40,"APOSTROPHE","""mask3.avi (170x170)""",1386,"True ",1,0.901041667,"Selected",-0.717796165,0,0,1,32
7,1,1,34,134,2,1,2,2,40,"APOSTROPHE","""mask2.avi (170x170)""",1277,"True ",1,0.901041667,"Selected",-0.845687263,0,0,1,33
7,1,1,35,14,2,1,2,3,40,"APOSTROPHE","""mask1.avi (170x170)""",1378,"True ",1,0.901041667,"Selected",-0.727182667,0,0,0,34
7,1,1,36,77,2,1,2,3,40,"APOSTROPHE","""mask6.avi (170x170)""",1943,"True ",1,0.901041667,"Selected",-0.064260919,0,0,0,35
7,1,1,37,36,2,1,3,1,40,"APOSTROPHE","""mask3.avi (170x170)""",1492,"True ",1,0.901041667,"Selected",-0.593425005,0,1,0,36
7,1,1,38,23,2,1,3,1,40,"APOSTROPHE","""mask4.avi (170x170)""",1534,"True ",1,0.901041667,"Selected",-0.544145866,0,1,0,37
7,1,1,40,81,2,1,3,2,40,"APOSTROPHE","""mask8.avi (170x170)""",2747,"True ",1,0.901041667,"Selected",0.879082594,0,0,1,39
7,1,1,41,162,2,1,3,3,40,"APOSTROPHE","""mask3.avi (170x170)""",2584,"True ",1,0.901041667,"Selected",0.687832603,0,0,0,40
7,1,1,42,34,2,1,3,3,40,"APOSTROPHE","""mask4.avi (170x170)""",2500,"True ",1,0.901041667,"Selected",0.589274326,0,0,0,41
7,1,1,43,33,2,1,4,1,40,"APOSTROPHE","""mask3.avi (170x170)""",3623,"True ",1,0.901041667,"Selected",1.906904632,0,1,0,42
7,1,1,45,72,2,1,4,2,40,"APOSTROPHE","""mask1.avi (170x170)""",1913,"True ",1,0.901041667,"Selected",-0.099460304,0,0,1,44
7,1,1,46,24,2,1,4,2,40,"APOSTROPHE","""mask2.avi (170x170)""",1797,"True ",1,0.901041667,"Selected",-0.235564592,0,0,1,45
7,1,1,47,137,2,1,4,3,40,"APOSTROPHE","""mask2.avi (170x170)""",2084,"True ",1,0.901041667,"Selected",0.101176189,0,0,0,46
7,1,1,48,82,2,1,4,3,40,"APOSTROPHE","""mask0.avi (170x170)""",1805,"True ",1,0.901041667,"Selected",-0.22617809,0,0,0,47
7,1,1,49,17,3,1,1,1,53,"/         ","""mask5.avi (170x170)""",1908,"True ",1,0.901041667,"Selected",-0.105326868,0,1,0,48
7,1,1,51,186,3,1,1,2,53,"/         ","""mask6.avi (170x170)""",1433,"True ",1,0.901041667,"Selected",-0.662650462,0,0,1,50
7,1,1,52,42,3,1,1,2,53,"/         ","""mask1.avi (170x170)""",1450,"True ",1,0.901041667,"Selected",-0.642704144,0,0,1,51
7,1,1,53,122,3,1,1,3,53,"/         ","""mask9.avi (170x170)""",2573,"True ",1,0.901041667,"Selected",0.674926162,0,0,0,52
7,1,1,54,26,3,1,1,3,53,"/         ","""mask0.avi (170x170)""",3123,"True ",1,0.901041667,"Selected",1.320248218,0,0,0,53
7,1,1,56,76,3,1,2,1,53,"/         ","""mask3.avi (170x170)""",1886,"True ",1,0.901041667,"Selected",-0.131139751,0,1,0,55
7,1,1,57,144,3,1,2,2,53,"/         ","""mask0.avi (170x170)""",1523,"True ",1,0.901041667,"Selected",-0.557052307,0,0,1,56
7,1,1,58,66,3,1,2,2,53,"/         ","""mask6.avi (170x170)""",3404,"True ",1,0.901041667,"Selected",1.649949123,0,0,1,57
7,1,1,59,168,3,1,2,3,53,"/         ","""mask7.avi (170x170)""",1633,"True ",1,0.901041667,"Selected",-0.427987896,0,0,0,58
7,1,1,60,84,3,1,2,3,53,"/         ","""mask9.avi (170x170)""",2021,"True ",1,0.901041667,"Selected",0.027257481,0,0,0,59
7,1,1,61,65,3,1,3,1,53,"/         ","""mask6.avi (170x170)""",2044,"True ",1,0.901041667,"Selected",0.054243676,0,1,0,60
7,1,1,62,27,3,1,3,1,53,"/         ","""mask6.avi (170x170)""",1731,"True ",1,0.901041667,"Selected",-0.313003239,0,1,0,61
7,1,1,63,31,3,1,3,2,53,"/         ","""mask6.avi (170x170)""",2288,"True ",1,0.901041667,"Selected",0.340532006,0,0,1,62
7,1,1,65,37,3,1,3,3,53,"/         ","""mask5.avi (170x170)""",2723,"True ",1,0.901041667,"Selected",0.850923087,0,0,0,64
7,1,1,66,169,3,1,3,3,53,"/         ","""mask7.avi (170x170)""",1693,"True ",1,0.901041667,"Selected",-0.357589126,0,0,0,65
7,1,1,67,138,3,1,4,1,53,"/         ","""mask0.avi (170x170)""",2068,"True ",1,0.901041667,"Selected",0.082403184,0,1,0,66
7,1,1,68,124,3,1,4,1,53,"/         ","""mask5.avi (170x170)""",1159,"True ",1,0.901041667,"Selected",-0.984138177,0,1,0,67
7,1,1,69,143,3,1,4,2,53,"/         ","""mask9.avi (170x170)""",1370,"True ",1,0.901041667,"Selected",-0.73656917,0,0,1,68
7,1,1,70,67,3,1,4,2,53,"/         ","""mask7.avi (170x170)""",1524,"True ",1,0.901041667,"Selected",-0.555878994,0,0,1,69
7,1,1,71,149,3,1,4,3,53,"/         ","""mask6.avi (170x170)""",1498,"True ",1,0.901041667,"Selected",-0.586385128,0,0,0,70
7,1,1,72,53,3,1,4,3,53,"/         ","""mask6.avi (170x170)""",2666,"True ",1,0.901041667,"Selected",0.784044255,0,0,0,71
7,1,1,73,19,4,1,1,1,44,"Z         ","""mask4.avi (170x170)""",2942,"True ",1,0.901041667,"Selected",1.107878596,0,1,0,72
7,1,1,74,101,4,1,1,1,44,"Z         ","""mask0.avi (170x170)""",3836,"True ",1,0.901041667,"Selected",2.156820264,0,1,0,73
7,1,1,75,63,4,1,1,2,44,"Z         ","""mask9.avi (170x170)""",3578,"True ",1,0.901041667,"Selected",1.854105555,0,0,1,74
7,1,1,76,89,4,1,1,2,44,"Z         ","""mask2.avi (170x170)""",2135,"True ",1,0.901041667,"Selected",0.161015144,0,0,1,75
7,1,1,78,151,4,1,1,3,44,"Z         ","""mask3.avi (170x170)""",2469,"True ",1,0.901041667,"Selected",0.552901628,0,0,0,77
7,1,1,79,21,4,1,2,1,44,"Z         ","""mask5.avi (170x170)""",1395,"True ",1,0.901041667,"Selected",-0.707236349,0,1,0,78
7,1,1,81,172,4,1,2,2,44,"Z         ","""mask9.avi (170x170)""",1394,"True ",1,0.901041667,"Selected",-0.708409662,0,0,1,80
7,1,1,82,146,4,1,2,2,44,"Z         ","""mask3.avi (170x170)""",1447,"True ",1,0.901041667,"Selected",-0.646224082,0,0,1,81
7,1,1,83,204,4,1,2,3,44,"Z         ","""mask8.avi (170x170)""",2380,"True ",1,0.901041667,"Selected",0.448476787,0,0,0,82
7,1,1,84,195,4,1,2,3,44,"Z         ","""mask9.avi (170x170)""",1863,"True ",1,0.901041667,"Selected",-0.158125946,0,0,0,83
7,1,1,85,95,4,1,3,1,44,"Z         ","""mask1.avi (170x170)""",3218,"True ",1,0.901041667,"Selected",1.431712937,0,1,0,84
7,1,1,86,116,4,1,3,1,44,"Z         ","""mask7.avi (170x170)""",2459,"True ",1,0.901041667,"Selected",0.5411685,0,1,0,85
7,1,1,87,20,4,1,3,2,44,"Z         ","""mask7.avi (170x170)""",1804,"True ",1,0.901041667,"Selected",-0.227351402,0,0,1,86
7,1,1,88,18,4,1,3,2,44,"Z         ","""mask1.avi (170x170)""",1478,"True ",1,0.901041667,"Selected",-0.609851384,0,0,1,87
7,1,1,89,103,4,1,3,3,44,"Z         ","""mask5.avi (170x170)""",3307,"True ",1,0.901041667,"Selected",1.536137778,0,0,0,88
7,1,1,90,165,4,1,3,3,44,"Z         ","""mask4.avi (170x170)""",3116,"True ",1,0.901041667,"Selected",1.312035028,0,0,0,89
7,1,1,91,131,4,1,4,1,44,"Z         ","""mask9.avi (170x170)""",1484,"True ",1,0.901041667,"Selected",-0.602811507,0,1,0,90
7,1,1,92,125,4,1,4,1,44,"Z         ","""mask5.avi (170x170)""",3730,"True ",1,0.901041667,"Selected",2.032449104,0,1,0,91
7,1,1,93,41,4,1,4,2,44,"Z         ","""mask2.avi (170x170)""",1571,"True ",1,0.901041667,"Selected",-0.500733291,0,0,1,92
7,1,1,94,194,4,1,4,2,44,"Z         ","""mask7.avi (170x170)""",2128,"True ",1,0.901041667,"Selected",0.152801954,0,0,1,93
7,1,1,95,160,4,1,4,3,44,"Z         ","""mask8.avi (170x170)""",1965,"True ",1,0.901041667,"Selected",-0.038448037,0,0,0,94
7,1,1,96,170,4,1,4,3,44,"Z         ","""mask4.avi (170x170)""",1353,"True ",1,0.901041667,"Selected",-0.756515488,0,0,0,95
7,1,1,97,80,1,2,1,1,30,"A         ","""mask8.avi (170x170)""",1620,"True ",1,0.901041667,"Selected",-0.443240963,0,1,0,96
7,1,1,98,203,1,2,1,1,30,"A         ","""mask0.avi (170x170)""",2285,"True ",1,0.901041667,"Selected",0.337012068,0,1,0,97
7,1,1,99,198,1,2,1,2,30,"A         ","""mask8.avi (170x170)""",1678,"True ",1,0.901041667,"Selected",-0.375188819,0,0,1,98
7,1,1,100,32,1,2,1,2,30,"A         ","""mask2.avi (170x170)""",1335,"True ",1,0.901041667,"Selected",-0.777635119,0,0,1,99
7,1,1,102,121,1,2,1,3,30,"A         ","""mask6.avi (170x170)""",3456,"True ",1,0.901041667,"Selected",1.71096139,0,0,0,101
7,1,1,103,157,1,2,2,1,30,"A         ","""mask4.avi (170x170)""",1247,"True ",1,0.901041667,"Selected",-0.880886648,0,1,0,102
7,1,1,104,15,1,2,2,1,30,"A         ","""mask7.avi (170x170)""",1238,"True ",1,0.901041667,"Selected",-0.891446463,0,1,0,103
7,1,1,105,25,1,2,2,2,30,"A         ","""mask0.avi (170x170)""",1423,"True ",1,0.901041667,"Selected",-0.67438359,0,0,1,104
7,1,1,106,104,1,2,2,2,30,"A         ","""mask5.avi (170x170)""",1342,"True ",1,0.901041667,"Selected",-0.769421929,0,0,1,105
7,1,1,107,140,1,2,2,3,30,"A         ","""mask5.avi (170x170)""",1371,"True ",1,0.901041667,"Selected",-0.735395857,0,0,0,106
7,1,1,108,69,1,2,2,3,30,"A         ","""mask6.avi (170x170)""",2609,"True ",1,0.901041667,"Selected",0.717165424,0,0,0,107
7,1,1,109,30,1,2,3,1,30,"A         ","""mask9.avi (170x170)""",1688,"True ",1,0.901041667,"Selected",-0.363455691,0,1,0,108
7,1,1,110,110,1,2,3,1,30,"A         ","""mask0.avi (170x170)""",1443,"True ",1,0.901041667,"Selected",-0.650917333,0,1,0,109
7,1,1,111,181,1,2,3,2,30,"A         ","""mask8.avi (170x170)""",1604,"True ",1,0.901041667,"Selected",-0.462013968,0,0,1,110
7,1,1,112,93,1,2,3,2,30,"A         ","""mask7.avi (170x170)""",1725,"True ",1,0.901041667,"Selected",-0.320043116,0,0,1,111
7,1,1,115,51,1,2,4,1,30,"A         ","""mask5.avi (170x170)""",1472,"True ",1,0.901041667,"Selected",-0.616891261,0,1,0,114
7,1,1,116,161,1,2,4,1,30,"A         ","""mask7.avi (170x170)""",1837,"True ",1,0.901041667,"Selected",-0.188632079,0,1,0,115
7,1,1,117,178,1,2,4,2,30,"A         ","""mask8.avi (170x170)""",1321,"True ",1,0.901041667,"Selected",-0.794061498,0,0,1,116
7,1,1,118,182,1,2,4,2,30,"A         ","""mask0.avi (170x170)""",1909,"True ",1,0.901041667,"Selected",-0.104153555,0,0,1,117
7,1,1,119,139,1,2,4,3,30,"A         ","""mask6.avi (170x170)""",2062,"True ",1,0.901041667,"Selected",0.075363307,0,0,0,118
7,1,1,120,188,1,2,4,3,30,"A         ","""mask2.avi (170x170)""",1831,"True ",1,0.901041667,"Selected",-0.195671956,0,0,0,119
7,1,1,121,185,2,2,1,1,40,"APOSTROPHE","""mask6.avi (170x170)""",2749,"True ",1,0.901041667,"Selected",0.88142922,0,1,0,120
7,1,1,122,115,2,2,1,1,40,"APOSTROPHE","""mask0.avi (170x170)""",1641,"True ",1,0.901041667,"Selected",-0.418601393,0,1,0,121
7,1,1,123,155,2,2,1,2,40,"APOSTROPHE","""mask9.avi (170x170)""",1265,"True ",1,0.901041667,"Selected",-0.859767017,0,0,1,122
7,1,1,124,132,2,2,1,2,40,"APOSTROPHE","""mask3.avi (170x170)""",1852,"True ",1,0.901041667,"Selected",-0.171032387,0,0,1,123
7,1,1,126,91,2,2,1,3,40,"APOSTROPHE","""mask4.avi (170x170)""",2555,"True ",1,0.901041667,"Selected",0.653806531,0,0,0,125
7,1,1,127,176,2,2,2,1,40,"APOSTROPHE","""mask0.avi (170x170)""",1644,"True ",1,0.901041667,"Selected",-0.415081455,0,1,0,126
7,1,1,128,49,2,2,2,1,40,"APOSTROPHE","""mask4.avi (170x170)""",1273,"True ",1,0.901041667,"Selected",-0.850380514,0,1,0,127
7,1,1,129,79,2,2,2,2,40,"APOSTROPHE","""mask6.avi (170x170)""",1476,"True ",1,0.901041667,"Selected",-0.61219801,0,0,1,128
7,1,1,130,109,2,2,2,2,40,"APOSTROPHE","""mask8.avi (170x170)""",2043,"True ",1,0.901041667,"Selected",0.053070363,0,0,1,129
7,1,1,131,90,2,2,2,3,40,"APOSTROPHE","""mask6.avi (170x170)""",1732,"True ",1,0.901041667,"Selected",-0.311829926,0,0,0,130
7,1,1,132,120,2,2,2,3,40,"APOSTROPHE","""mask6.avi (170x170)""",1416,"True ",1,0.901041667,"Selected",-0.68259678,0,0,0,131
7,1,1,133,16,2,2,3,1,40,"APOSTROPHE","""mask8.avi (170x170)""",1273,"True ",1,0.901041667,"Selected",-0.850380514,0,1,0,132
7,1,1,134,54,2,2,3,1,40,"APOSTROPHE","""mask8.avi (170x170)""",1694,"True ",1,0.901041667,"Selected",-0.356415814,0,1,0,133
7,1,1,135,102,2,2,3,2,40,"APOSTROPHE","""mask7.avi (170x170)""",2573,"True ",1,0.901041667,"Selected",0.674926162,0,0,1,134
7,1,1,136,187,2,2,3,2,40,"APOSTROPHE","""mask6.avi (170x170)""",1218,"True ",1,0.901041667,"Selected",-0.91491272,0,0,1,135
7,1,1,137,29,2,2,3,3,40,"APOSTROPHE","""mask0.avi (170x170)""",2641,"True ",1,0.901041667,"Selected",0.754711435,0,0,0,136
7,1,1,138,171,2,2,3,3,40,"APOSTROPHE","""mask3.avi (170x170)""",1378,"True ",1,0.901041667,"Selected",-0.727182667,0,0,0,137
7,1,1,139,38,2,2,4,1,40,"APOSTROPHE","""mask9.avi (170x170)""",2459,"True ",1,0.901041667,"Selected",0.5411685,0,1,0,138
7,1,1,140,130,2,2,4,1,40,"APOSTROPHE","""mask9.avi (170x170)""",1872,"True ",1,0.901041667,"Selected",-0.14756613,0,1,0,139
7,1,1,141,156,2,2,4,2,40,"APOSTROPHE","""mask0.avi (170x170)""",1036,"True ",1,0.901041667,"Selected",-1.128455654,0,0,1,140
7,1,1,142,192,2,2,4,2,40,"APOSTROPHE","""mask1.avi (170x170)""",1826,"True ",1,0.901041667,"Selected",-0.20153852,0,0,1,141
7,1,1,143,70,2,2,4,3,40,"APOSTROPHE","""mask0.avi (170x170)""",1440,"True ",1,0.901041667,"Selected",-0.654437272,0,0,0,142
7,1,1,144,158,2,2,4,3,40,"APOSTROPHE","""mask9.avi (170x170)""",1041,"True ",1,0.901041667,"Selected",-1.12258909,0,0,0,143
7,1,1,145,75,3,2,1,1,53,"/         ","""mask8.avi (170x170)""",1389,"True ",1,0.901041667,"Selected",-0.714276226,0,1,0,144
7,1,1,146,45,3,2,1,1,53,"/         ","""mask1.avi (170x170)""",1756,"True ",1,0.901041667,"Selected",-0.283670418,0,1,0,145
7,1,1,147,154,3,2,1,2,53,"/         ","""mask9.avi (170x170)""",1519,"True ",1,0.901041667,"Selected",-0.561745558,0,0,1,146
7,1,1,148,150,3,2,1,2,53,"/         ","""mask2.avi (170x170)""",1776,"True ",1,0.901041667,"Selected",-0.260204162,0,0,1,147
7,1,1,150,191,3,2,1,3,53,"/         ","""mask9.avi (170x170)""",1488,"True ",1,0.901041667,"Selected",-0.598118256,0,0,0,149
7,1,1,151,167,3,2,2,1,53,"/         ","""mask4.avi (170x170)""",1299,"True ",1,0.901041667,"Selected",-0.819874381,0,1,0,150
7,1,1,152,166,3,2,2,1,53,"/         ","""mask3.avi (170x170)""",1181,"True ",1,0.901041667,"Selected",-0.958325294,0,1,0,151
7,1,1,153,113,3,2,2,2,53,"/         ","""mask1.avi (170x170)""",1728,"True ",1,0.901041667,"Selected",-0.316523177,0,0,1,152
7,1,1,154,183,3,2,2,2,53,"/         ","""mask3.avi (170x170)""",1719,"True ",1,0.901041667,"Selected",-0.327082993,0,0,1,153
7,1,1,156,61,3,2,2,3,53,"/         ","""mask1.avi (170x170)""",2082,"True ",1,0.901041667,"Selected",0.098829564,0,0,0,155
7,1,1,157,199,3,2,3,1,53,"/         ","""mask9.avi (170x170)""",1703,"True ",1,0.901041667,"Selected",-0.345855998,0,1,0,156
7,1,1,158,47,3,2,3,1,53,"/         ","""mask3.avi (170x170)""",1293,"True ",1,0.901041667,"Selected",-0.826914258,0,1,0,157
7,1,1,159,44,3,2,3,2,53,"/         ","""mask3.avi (170x170)""",2452,"True ",1,0.901041667,"Selected",0.53295531,0,0,1,158
7,1,1,160,13,3,2,3,2,53,"/         ","""mask5.avi (170x170)""",1548,"True ",1,0.901041667,"Selected",-0.527719486,0,0,1,159
7,1,1,161,196,3,2,3,3,53,"/         ","""mask8.avi (170x170)""",3089,"True ",1,0.901041667,"Selected",1.280355582,0,0,0,160
7,1,1,162,114,3,2,3,3,53,"/         ","""mask7.avi (170x170)""",2313,"True ",1,0.901041667,"Selected",0.369864827,0,0,0,161
7,1,1,163,40,3,2,4,1,53,"/         ","""mask6.avi (170x170)""",1462,"True ",1,0.901041667,"Selected",-0.62862439,0,1,0,162
7,1,1,164,98,3,2,4,1,53,"/         ","""mask9.avi (170x170)""",2617,"True ",1,0.901041667,"Selected",0.726551927,0,1,0,163
7,1,1,165,60,3,2,4,2,53,"/         ","""mask3.avi (170x170)""",1843,"True ",1,0.901041667,"Selected",-0.181592202,0,0,1,164
7,1,1,166,133,3,2,4,2,53,"/         ","""mask1.avi (170x170)""",1193,"True ",1,0.901041667,"Selected",-0.94424554,0,0,1,165
7,1,1,167,177,3,2,4,3,53,"/         ","""mask3.avi (170x170)""",1252,"True ",1,0.901041667,"Selected",-0.875020084,0,0,0,166
7,1,1,168,86,3,2,4,3,53,"/         ","""mask1.avi (170x170)""",2515,"True ",1,0.901041667,"Selected",0.606874018,0,0,0,167
7,1,1,171,96,4,2,1,2,44,"Z         ","""mask7.avi (170x170)""",1326,"True ",1,0.901041667,"Selected",-0.788194934,0,0,1,170
7,1,1,172,173,4,2,1,2,44,"Z         ","""mask4.avi (170x170)""",1269,"True ",1,0.901041667,"Selected",-0.855073765,0,0,1,171
7,1,1,174,190,4,2,1,3,44,"Z         ","""mask1.avi (170x170)""",1497,"True ",1,0.901041667,"Selected",-0.587558441,0,0,0,173
7,1,1,175,50,4,2,2,1,44,"Z         ","""mask0.avi (170x170)""",1292,"True ",1,0.901041667,"Selected",-0.82808757,0,1,0,174
7,1,1,176,59,4,2,2,1,44,"Z         ","""mask5.avi (170x170)""",1300,"True ",1,0.901041667,"Selected",-0.818701068,0,1,0,175
7,1,1,177,197,4,2,2,2,44,"Z         ","""mask2.avi (170x170)""",1458,"True ",1,0.901041667,"Selected",-0.633317641,0,0,1,176
7,1,1,178,56,4,2,2,2,44,"Z         ","""mask7.avi (170x170)""",1260,"True ",1,0.901041667,"Selected",-0.865633581,0,0,1,177
7,1,1,179,193,4,2,2,3,44,"Z         ","""mask8.avi (170x170)""",1350,"True ",1,0.901041667,"Selected",-0.760035426,0,0,0,178
7,1,1,180,126,4,2,2,3,44,"Z         ","""mask9.avi (170x170)""",1906,"True ",1,0.901041667,"Selected",-0.107673494,0,0,0,179
7,1,1,181,141,4,2,3,1,44,"Z         ","""mask5.avi (170x170)""",1644,"True ",1,0.901041667,"Selected",-0.415081455,0,1,0,180
7,1,1,183,184,4,2,3,2,44,"Z         ","""mask1.avi (170x170)""",1137,"True ",1,0.901041667,"Selected",-1.009951059,0,0,1,182
7,1,1,185,22,4,2,3,3,44,"Z         ","""mask7.avi (170x170)""",2198,"True ",1,0.901041667,"Selected",0.234933852,0,0,0,184
7,1,1,187,200,4,2,4,1,44,"Z         ","""mask9.avi (170x170)""",1859,"True ",1,0.901041667,"Selected",-0.162819197,0,1,0,186
7,1,1,188,127,4,2,4,1,44,"Z         ","""mask5.avi (170x170)""",1700,"True ",1,0.901041667,"Selected",-0.349375937,0,1,0,187
7,1,1,189,43,4,2,4,2,44,"Z         ","""mask5.avi (170x170)""",1610,"True ",1,0.901041667,"Selected",-0.454974091,0,0,1,188
7,1,1,190,94,4,2,4,2,44,"Z         ","""mask1.avi (170x170)""",1269,"True ",1,0.901041667,"Selected",-0.855073765,0,0,1,189
7,1,1,191,180,4,2,4,3,44,"Z         ","""mask5.avi (170x170)""",1323,"True ",1,0.901041667,"Selected",-0.791714873,0,0,0,190
7,1,1,192,52,4,2,4,3,44,"Z         ","""mask0.avi (170x170)""",1674,"True ",1,0.901041667,"Selected",-0.37988207,0,0,0,191
9,1,1,1,117,1,1,1,1,30,"A         ","""mask8.avi (170x170)""",2643,"True ",1,0.9375,"Selected",0.217444464,0,1,0,0
9,1,1,2,152,1,1,1,1,30,"A         ","""mask1.avi (170x170)""",3225,"True ",1,0.9375,"Selected",0.784323871,0,1,0,1
9,1,1,3,85,1,1,1,2,30,"A         ","""mask1.avi (170x170)""",1961,"True ",1,0.9375,"Selected",-0.446836902,0,0,1,2
9,1,1,4,28,1,1,1,2,30,"A         ","""mask8.avi (170x170)""",2768,"True ",1,0.9375,"Selected",0.339196914,0,0,1,3
9,1,1,5,78,1,1,1,3,30,"A         ","""mask2.avi (170x170)""",4520,"True ",1,0.9375,"Selected",2.045679252,0,0,0,4
9,1,1,6,92,1,1,1,3,30,"A         ","""mask4.avi (170x170)""",5310,"True ",1,0.9375,"Selected",2.815154735,0,0,0,5
9,1,1,7,136,1,1,2,1,30,"A         ","""mask4.avi (170x170)""",1761,"True ",1,0.9375,"Selected",-0.641640822,0,1,0,6
9,1,1,8,176,1,1,2,1,30,"A         ","""mask9.avi (170x170)""",3691,"True ",1,0.9375,"Selected",1.238217004,0,1,0,7
9,1,1,9,131,1,1,2,2,30,"A         ","""mask4.avi (170x170)""",1719,"True ",1,0.9375,"Selected",-0.682549645,0,0,1,8
9,1,1,10,112,1,1,2,2,30,"A         ","""mask2.avi (170x170)""",2387,"True ",1,0.9375,"Selected",-0.031904553,0,0,1,9
9,1,1,11,50,1,1,2,3,30,"A         ","""mask3.avi (170x170)""",1866,"True ",1,0.9375,"Selected",-0.539368764,0,0,0,10
9,1,1,12,70,1,1,2,3,30,"A         ","""mask0.avi (170x170)""",2187,"True ",1,0.9375,"Selected",-0.226708473,0,0,0,11
9,1,1,13,162,1,1,3,1,30,"A         ","""mask4.avi (170x170)""",2517,"True ",1,0.9375,"Selected",0.094717995,0,1,0,12
9,1,1,14,146,1,1,3,1,30,"A         ","""mask6.avi (170x170)""",1655,"True ",1,0.9375,"Selected",-0.7448869,0,1,0,13
9,1,1,15,105,1,1,3,2,30,"A         ","""mask4.avi (170x170)""",3749,"True ",1,0.9375,"Selected",1.294710141,0,0,1,14
9,1,1,16,17,1,1,3,2,30,"A         ","""mask4.avi (170x170)""",1706,"True ",1,0.9375,"Selected",-0.6952119,0,0,1,15
9,1,1,17,69,1,1,3,3,30,"A         ","""mask7.avi (170x170)""",5234,"True ",1,0.9375,"Selected",2.741129246,0,0,0,16
9,1,1,18,80,1,1,3,3,30,"A         ","""mask7.avi (170x170)""",3359,"True ",1,0.9375,"Selected",0.914842497,0,0,0,17
9,1,1,19,21,1,1,4,1,30,"A         ","""mask2.avi (170x170)""",1593,"True ",1,0.9375,"Selected",-0.805276115,0,1,0,18
9,1,1,20,44,1,1,4,1,30,"A         ","""mask2.avi (170x170)""",2345,"True ",1,0.9375,"Selected",-0.072813376,0,1,0,19
9,1,1,21,116,1,1,4,2,30,"A         ","""mask2.avi (170x170)""",2225,"True ",1,0.9375,"Selected",-0.189695728,0,0,1,20
9,1,1,22,101,1,1,4,2,30,"A         ","""mask7.avi (170x170)""",4051,"True ",1,0.9375,"Selected",1.58886406,0,0,1,21
9,1,1,23,77,1,1,4,3,30,"A         ","""mask7.avi (170x170)""",3154,"True ",1,0.9375,"Selected",0.71516848,0,0,0,22
9,1,1,24,103,1,1,4,3,30,"A         ","""mask1.avi (170x170)""",3848,"True ",1,0.9375,"Selected",1.391138081,0,0,0,23
9,1,1,25,164,2,1,1,1,40,"APOSTROPHE","""mask5.avi (170x170)""",1960,"True ",1,0.9375,"Selected",-0.447810922,0,1,0,24
9,1,1,26,26,2,1,1,1,40,"APOSTROPHE","""mask2.avi (170x170)""",1998,"True ",1,0.9375,"Selected",-0.410798177,0,1,0,25
9,1,1,27,108,2,1,1,2,40,"APOSTROPHE","""mask2.avi (170x170)""",1608,"True ",1,0.9375,"Selected",-0.790665821,0,0,1,26
9,1,1,28,194,2,1,1,2,40,"APOSTROPHE","""mask8.avi (170x170)""",2306,"True ",1,0.9375,"Selected",-0.110800141,0,0,1,27
9,1,1,29,64,2,1,1,3,40,"APOSTROPHE","""mask4.avi (170x170)""",3726,"True ",1,0.9375,"Selected",1.27230769,0,0,0,28
9,1,1,30,175,2,1,1,3,40,"APOSTROPHE","""mask2.avi (170x170)""",2113,"True ",1,0.9375,"Selected",-0.298785923,0,0,0,29
9,1,1,31,60,2,1,2,1,40,"APOSTROPHE","""mask0.avi (170x170)""",1209,"True ",1,0.9375,"Selected",-1.179299641,0,1,0,30
9,1,1,32,42,2,1,2,1,40,"APOSTROPHE","""mask2.avi (170x170)""",1213,"True ",1,0.9375,"Selected",-1.175403563,0,1,0,31
9,1,1,34,36,2,1,2,2,40,"APOSTROPHE","""mask2.avi (170x170)""",1314,"True ",1,0.9375,"Selected",-1.077027583,0,0,1,33
9,1,1,35,187,2,1,2,3,40,"APOSTROPHE","""mask1.avi (170x170)""",3111,"True ",1,0.9375,"Selected",0.673285637,0,0,0,34
9,1,1,36,107,2,1,2,3,40,"APOSTROPHE","""mask6.avi (170x170)""",1401,"True ",1,0.9375,"Selected",-0.992287878,0,0,0,35
9,1,1,37,52,2,1,3,1,40,"APOSTROPHE","""mask3.avi (170x170)""",1595,"True ",1,0.9375,"Selected",-0.803328076,0,1,0,36
9,1,1,38,14,2,1,3,1,40,"APOSTROPHE","""mask4.avi (170x170)""",1949,"True ",1,0.9375,"Selected",-0.458525138,0,1,0,37
9,1,1,40,54,2,1,3,2,40,"APOSTROPHE","""mask8.avi (170x170)""",1070,"True ",1,0.9375,"Selected",-1.314688365,0,0,1,39
9,1,1,41,16,2,1,3,3,40,"APOSTROPHE","""mask3.avi (170x170)""",2520,"True ",1,0.9375,"Selected",0.097640054,0,0,0,40
9,1,1,42,68,2,1,3,3,40,"APOSTROPHE","""mask4.avi (170x170)""",4304,"True ",1,0.9375,"Selected",1.835291019,0,0,0,41
9,1,1,43,180,2,1,4,1,40,"APOSTROPHE","""mask3.avi (170x170)""",1403,"True ",1,0.9375,"Selected",-0.990339839,0,1,0,42
9,1,1,44,132,2,1,4,1,40,"APOSTROPHE","""mask4.avi (170x170)""",1241,"True ",1,0.9375,"Selected",-1.148131014,0,1,0,43
9,1,1,45,29,2,1,4,2,40,"APOSTROPHE","""mask1.avi (170x170)""",1325,"True ",1,0.9375,"Selected",-1.066313367,0,0,1,44
9,1,1,46,203,2,1,4,2,40,"APOSTROPHE","""mask2.avi (170x170)""",1250,"True ",1,0.9375,"Selected",-1.139364837,0,0,1,45
9,1,1,47,150,2,1,4,3,40,"APOSTROPHE","""mask2.avi (170x170)""",2473,"True ",1,0.9375,"Selected",0.051861132,0,0,0,46
9,1,1,48,114,2,1,4,3,40,"APOSTROPHE","""mask0.avi (170x170)""",2669,"True ",1,0.9375,"Selected",0.242768974,0,0,0,47
9,1,1,49,48,3,1,1,1,53,"/         ","""mask5.avi (170x170)""",4475,"True ",1,0.9375,"Selected",2.00184837,0,1,0,48
9,1,1,51,53,3,1,1,2,53,"/         ","""mask6.avi (170x170)""",2027,"True ",1,0.9375,"Selected",-0.382551609,0,0,1,50
9,1,1,52,122,3,1,1,2,53,"/         ","""mask1.avi (170x170)""",1779,"True ",1,0.9375,"Selected",-0.624108469,0,0,1,51
9,1,1,53,189,3,1,1,3,53,"/         ","""mask9.avi (170x170)""",2573,"True ",1,0.9375,"Selected",0.149263092,0,0,0,52
9,1,1,54,87,3,1,1,3,53,"/         ","""mask0.avi (170x170)""",2345,"True ",1,0.9375,"Selected",-0.072813376,0,0,0,53
9,1,1,55,168,3,1,2,1,53,"/         ","""mask5.avi (170x170)""",3996,"True ",1,0.9375,"Selected",1.535292982,0,1,0,54
9,1,1,56,97,3,1,2,1,53,"/         ","""mask3.avi (170x170)""",1285,"True ",1,0.9375,"Selected",-1.105274151,0,1,0,55
9,1,1,57,106,3,1,2,2,53,"/         ","""mask0.avi (170x170)""",3575,"True ",1,0.9375,"Selected",1.125230731,0,0,1,56
9,1,1,58,99,3,1,2,2,53,"/         ","""mask6.avi (170x170)""",1895,"True ",1,0.9375,"Selected",-0.511122196,0,0,1,57
9,1,1,59,113,3,1,2,3,53,"/         ","""mask7.avi (170x170)""",1836,"True ",1,0.9375,"Selected",-0.568589352,0,0,0,58
9,1,1,60,126,3,1,2,3,53,"/         ","""mask9.avi (170x170)""",2460,"True ",1,0.9375,"Selected",0.039198878,0,0,0,59
9,1,1,61,151,3,1,3,1,53,"/         ","""mask6.avi (170x170)""",1873,"True ",1,0.9375,"Selected",-0.532550627,0,1,0,60
9,1,1,62,102,3,1,3,1,53,"/         ","""mask6.avi (170x170)""",1599,"True ",1,0.9375,"Selected",-0.799431997,0,1,0,61
9,1,1,63,49,3,1,3,2,53,"/         ","""mask6.avi (170x170)""",2954,"True ",1,0.9375,"Selected",0.52036456,0,0,1,62
9,1,1,64,196,3,1,3,2,53,"/         ","""mask6.avi (170x170)""",4114,"True ",1,0.9375,"Selected",1.650227295,0,0,1,63
9,1,1,65,201,3,1,3,3,53,"/         ","""mask5.avi (170x170)""",3901,"True ",1,0.9375,"Selected",1.44276112,0,0,0,64
9,1,1,66,190,3,1,3,3,53,"/         ","""mask7.avi (170x170)""",2186,"True ",1,0.9375,"Selected",-0.227682493,0,0,0,65
9,1,1,67,174,3,1,4,1,53,"/         ","""mask0.avi (170x170)""",5472,"True ",1,0.9375,"Selected",2.972945911,0,1,0,66
9,1,1,68,63,3,1,4,1,53,"/         ","""mask5.avi (170x170)""",1317,"True ",1,0.9375,"Selected",-1.074105524,0,1,0,67
9,1,1,69,13,3,1,4,2,53,"/         ","""mask9.avi (170x170)""",1917,"True ",1,0.9375,"Selected",-0.489693765,0,0,1,68
9,1,1,70,84,3,1,4,2,53,"/         ","""mask7.avi (170x170)""",2731,"True ",1,0.9375,"Selected",0.303158189,0,0,1,69
9,1,1,71,192,3,1,4,3,53,"/         ","""mask6.avi (170x170)""",2583,"True ",1,0.9375,"Selected",0.159003288,0,0,0,70
9,1,1,72,145,3,1,4,3,53,"/         ","""mask6.avi (170x170)""",2438,"True ",1,0.9375,"Selected",0.017770446,0,0,0,71
9,1,1,73,163,4,1,1,1,44,"Z         ","""mask4.avi (170x170)""",4782,"True ",1,0.9375,"Selected",2.300872387,0,1,0,72
9,1,1,74,40,4,1,1,1,44,"Z         ","""mask0.avi (170x170)""",3048,"True ",1,0.9375,"Selected",0.611922402,0,1,0,73
9,1,1,76,179,4,1,1,2,44,"Z         ","""mask2.avi (170x170)""",3713,"True ",1,0.9375,"Selected",1.259645435,0,0,1,75
9,1,1,77,111,4,1,1,3,44,"Z         ","""mask7.avi (170x170)""",3065,"True ",1,0.9375,"Selected",0.628480735,0,0,0,76
9,1,1,78,184,4,1,1,3,44,"Z         ","""mask3.avi (170x170)""",2509,"True ",1,0.9375,"Selected",0.086925838,0,0,0,77
9,1,1,79,32,4,1,2,1,44,"Z         ","""mask5.avi (170x170)""",1150,"True ",1,0.9375,"Selected",-1.236766797,0,1,0,78
9,1,1,80,47,4,1,2,1,44,"Z         ","""mask4.avi (170x170)""",1914,"True ",1,0.9375,"Selected",-0.492615824,0,1,0,79
9,1,1,81,89,4,1,2,2,44,"Z         ","""mask9.avi (170x170)""",2054,"True ",1,0.9375,"Selected",-0.35625308,0,0,1,80
9,1,1,82,133,4,1,2,2,44,"Z         ","""mask3.avi (170x170)""",2084,"True ",1,0.9375,"Selected",-0.327032492,0,0,1,81
9,1,1,83,202,4,1,2,3,44,"Z         ","""mask8.avi (170x170)""",2945,"True ",1,0.9375,"Selected",0.511598383,0,0,0,82
9,1,1,84,20,4,1,2,3,44,"Z         ","""mask9.avi (170x170)""",3233,"True ",1,0.9375,"Selected",0.792116028,0,0,0,83
9,1,1,85,183,4,1,3,1,44,"Z         ","""mask1.avi (170x170)""",3097,"True ",1,0.9375,"Selected",0.659649362,0,1,0,84
9,1,1,86,35,4,1,3,1,44,"Z         ","""mask7.avi (170x170)""",2643,"True ",1,0.9375,"Selected",0.217444464,0,1,0,85
9,1,1,87,156,4,1,3,2,44,"Z         ","""mask7.avi (170x170)""",2596,"True ",1,0.9375,"Selected",0.171665543,0,0,1,86
9,1,1,88,115,4,1,3,2,44,"Z         ","""mask1.avi (170x170)""",3984,"True ",1,0.9375,"Selected",1.523604747,0,0,1,87
9,1,1,89,167,4,1,3,3,44,"Z         ","""mask5.avi (170x170)""",2684,"True ",1,0.9375,"Selected",0.257379268,0,0,0,88
9,1,1,90,141,4,1,3,3,44,"Z         ","""mask4.avi (170x170)""",3946,"True ",1,0.9375,"Selected",1.486592002,0,0,0,89
9,1,1,91,181,4,1,4,1,44,"Z         ","""mask9.avi (170x170)""",1388,"True ",1,0.9375,"Selected",-1.004950133,0,1,0,90
9,1,1,92,33,4,1,4,1,44,"Z         ","""mask5.avi (170x170)""",2882,"True ",1,0.9375,"Selected",0.450235149,0,1,0,91
9,1,1,93,191,4,1,4,2,44,"Z         ","""mask2.avi (170x170)""",2109,"True ",1,0.9375,"Selected",-0.302682002,0,0,1,92
9,1,1,94,140,4,1,4,2,44,"Z         ","""mask7.avi (170x170)""",2322,"True ",1,0.9375,"Selected",-0.095215827,0,0,1,93
9,1,1,95,88,4,1,4,3,44,"Z         ","""mask8.avi (170x170)""",2587,"True ",1,0.9375,"Selected",0.162899367,0,0,0,94
9,1,1,96,51,4,1,4,3,44,"Z         ","""mask4.avi (170x170)""",2885,"True ",1,0.9375,"Selected",0.453157207,0,0,0,95
9,1,1,97,171,1,2,1,1,30,"A         ","""mask8.avi (170x170)""",1683,"True ",1,0.9375,"Selected",-0.717614351,0,1,0,96
9,1,1,99,27,1,2,1,2,30,"A         ","""mask8.avi (170x170)""",1319,"True ",1,0.9375,"Selected",-1.072157485,0,0,1,98
9,1,1,100,158,1,2,1,2,30,"A         ","""mask2.avi (170x170)""",1577,"True ",1,0.9375,"Selected",-0.820860428,0,0,1,99
9,1,1,101,38,1,2,1,3,30,"A         ","""mask5.avi (170x170)""",3112,"True ",1,0.9375,"Selected",0.674259656,0,0,0,100
9,1,1,102,110,1,2,1,3,30,"A         ","""mask6.avi (170x170)""",2362,"True ",1,0.9375,"Selected",-0.056255043,0,0,0,101
9,1,1,103,83,1,2,2,1,30,"A         ","""mask4.avi (170x170)""",1403,"True ",1,0.9375,"Selected",-0.990339839,0,1,0,102
9,1,1,104,58,1,2,2,1,30,"A         ","""mask7.avi (170x170)""",1092,"True ",1,0.9375,"Selected",-1.293259934,0,1,0,103
9,1,1,106,82,1,2,2,2,30,"A         ","""mask5.avi (170x170)""",1635,"True ",1,0.9375,"Selected",-0.764367292,0,0,1,105
9,1,1,107,161,1,2,2,3,30,"A         ","""mask5.avi (170x170)""",1887,"True ",1,0.9375,"Selected",-0.518914353,0,0,0,106
9,1,1,108,185,1,2,2,3,30,"A         ","""mask6.avi (170x170)""",2335,"True ",1,0.9375,"Selected",-0.082553572,0,0,0,107
9,1,1,109,46,1,2,3,1,30,"A         ","""mask9.avi (170x170)""",2194,"True ",1,0.9375,"Selected",-0.219890336,0,1,0,108
9,1,1,110,96,1,2,3,1,30,"A         ","""mask0.avi (170x170)""",1735,"True ",1,0.9375,"Selected",-0.666965332,0,1,0,109
9,1,1,111,120,1,2,3,2,30,"A         ","""mask8.avi (170x170)""",1594,"True ",1,0.9375,"Selected",-0.804302095,0,0,1,110
9,1,1,112,138,1,2,3,2,30,"A         ","""mask7.avi (170x170)""",2044,"True ",1,0.9375,"Selected",-0.365993276,0,0,1,111
9,1,1,113,159,1,2,3,3,30,"A         ","""mask1.avi (170x170)""",5350,"True ",1,0.9375,"Selected",2.854115519,0,0,0,112
9,1,1,114,30,1,2,3,3,30,"A         ","""mask3.avi (170x170)""",1597,"True ",1,0.9375,"Selected",-0.801380036,0,0,0,113
9,1,1,115,94,1,2,4,1,30,"A         ","""mask5.avi (170x170)""",1773,"True ",1,0.9375,"Selected",-0.629952587,0,1,0,114
