"Participant","block","trial","stim","stimgroup","RT","Acuracy","stimposition","maskside","response","Correct_numeric","Acuracy_fixed_mean","filter_.","ZRT","Outlire","AlertEffect_first","OrientingEffect_first","ConflictEffect_first","GrandMeanEffect_first","ANT_Accuracy_first","Dominant_Eye_first","Right_Eye_Acuity_first","Left_Eye_Acuity_first","Age_first","Gender1male2female_first","Face_orientation","fo1","fo2","trial.r"
1,1,1,"folder/matchedM024IN.png",3,1.265852789,1,3,2,3,1,0.947916667,"Selected",-0.521858365,0,8,25,121,500,95,"L  ",1.3,1.67,29,1,2,0,1,0
1,1,2,"folder/matchedM049IN.png",3,1.541979251,1,4,2,4,1,0.947916667,"Selected",-0.269924028,0,8,25,121,500,95,"L  ",1.3,1.67,29,1,2,0,1,1
1,1,3,"folder/matchedM002.png  ",1,1.626291163,1,4,2,4,1,0.947916667,"Selected",-0.192998892,0,8,25,121,500,95,"L  ",1.3,1.67,29,1,1,1,0,2
1,1,4,"folder/matchedM021.png  ",1,2.03366861,1,2,2,2,1,0.947916667,"Selected",0.178687205,0,8,25,121,500,95,"L  ",1.3,1.67,29,1,1,1,0,3
1,1,5,"folder/matchedM067IN.png",4,2.438436483,1,3,1,3,1,0.947916667,"Selected",0.547992359,0,8,25,121,500,95,"L  ",1.3,1.67,29,1,2,0,1,4
1,1,6,"folder/matchedM001IN.png",4,1.304743067,1,4,1,4,1,0.947916667,"Selected",-0.486375361,0,8,25,121,500,95,"L  ",1.3,1.67,29,1,2,0,1,5
1,1,7,"folder/matchedM005SR.png",6,4.004759011,1,4,1,4,1,0.947916667,"Selected",1.97708548,0,8,25,121,500,95,"L  ",1.3,1.67,29,1,3,0,0,6
1,1,8,"folder/matchedM072IN.png",3,2.980558886,1,1,2,1,1,0.947916667,"Selected",1.042618072,0,8,25,121,500,95,"L  ",1.3,1.67,29,1,2,0,1,7
1,1,9,"folder/matchedM020SR.png",6,3.888131376,1,3,1,3,1,0.947916667,"Selected",1.870675882,0,8,25,121,500,95,"L  ",1.3,1.67,29,1,3,0,0,8
1,1,10,"folder/matchedM024IN.png",4,1.366201003,1,1,1,1,1,0.947916667,"Selected",-0.430301907,0,8,25,121,500,95,"L  ",1.3,1.67,29,1,2,0,1,9
1,1,11,"folder/matchedM006IN.png",4,4.642850013,1,1,1,1,1,0.947916667,"Selected",2.559271744,0,8,25,121,500,95,"L  ",1.3,1.67,29,1,2,0,1,10
1,1,12,"folder/matchedM002IN.png",3,3.022531071,1,3,2,3,1,0.947916667,"Selected",1.080912969,0,8,25,121,500,95,"L  ",1.3,1.67,29,1,2,0,1,11
1,1,13,"folder/matchedM067.png  ",1,2.260112383,1,1,2,1,1,0.947916667,"Selected",0.385291677,0,8,25,121,500,95,"L  ",1.3,1.67,29,1,1,1,0,12
1,1,14,"folder/matchedM021SL.png",5,3.173565241,1,1,2,1,1,0.947916667,"Selected",1.21871466,0,8,25,121,500,95,"L  ",1.3,1.67,29,1,3,0,0,13
1,1,15,"folder/matchedM001IN.png",3,1.095099237,1,3,2,3,1,0.947916667,"Selected",-0.677651774,0,8,25,121,500,95,"L  ",1.3,1.67,29,1,2,0,1,14
1,1,16,"folder/matchedM016.png  ",2,0.973122765,1,1,1,1,1,0.947916667,"Selected",-0.788941585,0,8,25,121,500,95,"L  ",1.3,1.67,29,1,1,1,0,15
1,1,17,"folder/matchedM008.png  ",1,1.119639046,1,3,2,3,1,0.947916667,"Selected",-0.655261958,0,8,25,121,500,95,"L  ",1.3,1.67,29,1,1,1,0,16
1,1,18,"folder/matchedM072IN.png",4,2.330041059,1,2,1,2,1,0.947916667,"Selected",0.449093728,0,8,25,121,500,95,"L  ",1.3,1.67,29,1,2,0,1,17
1,1,19,"folder/matchedM004.png  ",1,0.985056514,1,2,2,2,1,0.947916667,"Selected",-0.778053381,0,8,25,121,500,95,"L  ",1.3,1.67,29,1,1,1,0,18
1,1,20,"folder/matchedM020.png  ",2,1.311868636,1,2,1,2,1,0.947916667,"Selected",-0.47987408,0,8,25,121,500,95,"L  ",1.3,1.67,29,1,1,1,0,19
1,1,21,"folder/matchedM001SR.png",6,1.311592303,1,3,1,3,1,0.947916667,"Selected",-0.480126203,0,8,25,121,500,95,"L  ",1.3,1.67,29,1,3,0,0,20
1,1,22,"folder/matchedM024SR.png",5,3.31242772,1,3,2,3,1,0.947916667,"Selected",1.345411053,0,8,25,121,500,95,"L  ",1.3,1.67,29,1,3,0,0,21
1,1,23,"folder/matchedM072.png  ",2,1.876293335,1,2,1,2,1,0.947916667,"Selected",0.035099969,0,8,25,121,500,95,"L  ",1.3,1.67,29,1,1,1,0,22
1,1,24,"folder/matchedM020IN.png",3,2.10229339,1,2,2,2,1,0.947916667,"Selected",0.241299597,0,8,25,121,500,95,"L  ",1.3,1.67,29,1,2,0,1,23
1,1,25,"folder/matchedM004IN.png",3,1.279913921,1,4,2,4,1,0.947916667,"Selected",-0.509029163,0,8,25,121,500,95,"L  ",1.3,1.67,29,1,2,0,1,24
1,1,26,"folder/matchedM006.png  ",1,1.496127613,1,4,2,4,1,0.947916667,"Selected",-0.31175849,0,8,25,121,500,95,"L  ",1.3,1.67,29,1,1,1,0,25
1,1,27,"folder/matchedM072.png  ",1,1.144860911,1,3,2,3,1,0.947916667,"Selected",-0.632249844,0,8,25,121,500,95,"L  ",1.3,1.67,29,1,1,1,0,26
1,1,28,"folder/matchedM003SR.png",6,1.171691358,1,1,1,1,1,0.947916667,"Selected",-0.607770079,0,8,25,121,500,95,"L  ",1.3,1.67,29,1,3,0,0,27
1,1,29,"folder/matchedM008.png  ",2,1.076883747,1,2,1,2,1,0.947916667,"Selected",-0.694271359,0,8,25,121,500,95,"L  ",1.3,1.67,29,1,1,1,0,28
1,1,31,"folder/matchedM049SL.png",5,3.412445955,1,1,2,1,1,0.947916667,"Selected",1.436666442,0,8,25,121,500,95,"L  ",1.3,1.67,29,1,3,0,0,30
1,1,32,"folder/matchedM016IN.png",3,1.270669649,1,1,2,1,1,0.947916667,"Selected",-0.517463522,0,8,25,121,500,95,"L  ",1.3,1.67,29,1,2,0,1,31
1,1,33,"folder/matchedM017.png  ",2,1.518628347,1,4,1,4,1,0.947916667,"Selected",-0.291229101,0,8,25,121,500,95,"L  ",1.3,1.67,29,1,1,1,0,32
1,1,34,"folder/matchedM067SR.png",5,1.819456633,1,1,2,1,1,0.947916667,"Selected",-0.016757129,0,8,25,121,500,95,"L  ",1.3,1.67,29,1,3,0,0,33
1,1,35,"folder/matchedM002.png  ",2,1.814140859,1,4,1,4,1,0.947916667,"Selected",-0.021607175,0,8,25,121,500,95,"L  ",1.3,1.67,29,1,1,1,0,34
1,1,36,"folder/matchedM006IN.png",3,2.053095509,1,1,2,1,1,0.947916667,"Selected",0.196412065,0,8,25,121,500,95,"L  ",1.3,1.67,29,1,2,0,1,35
1,1,39,"folder/matchedM003SR.png",5,4.692631198,1,1,2,1,1,0.947916667,"Selected",2.604691476,0,8,25,121,500,95,"L  ",1.3,1.67,29,1,3,0,0,38
1,1,40,"folder/matchedM005.png  ",1,0.73921306,1,1,2,1,1,0.947916667,"Selected",-1.002357879,0,8,25,121,500,95,"L  ",1.3,1.67,29,1,1,1,0,39
1,1,41,"folder/matchedM019.png  ",2,1.831814071,1,4,1,4,1,0.947916667,"Selected",-0.005482357,0,8,25,121,500,95,"L  ",1.3,1.67,29,1,1,1,0,40
1,1,43,"folder/matchedM020.png  ",1,0.944627992,1,3,2,3,1,0.947916667,"Selected",-0.81493986,0,8,25,121,500,95,"L  ",1.3,1.67,29,1,1,1,0,42
1,1,44,"folder/matchedM016IN.png",4,2.285317282,1,3,1,3,1,0.947916667,"Selected",0.408288312,0,8,25,121,500,95,"L  ",1.3,1.67,29,1,2,0,1,43
1,1,45,"folder/matchedM049IN.png",4,3.78288213,1,2,1,2,1,0.947916667,"Selected",1.774647783,0,8,25,121,500,95,"L  ",1.3,1.67,29,1,2,0,1,44
1,1,46,"folder/matchedM001.png  ",2,1.352265211,1,1,1,1,1,0.947916667,"Selected",-0.443016749,0,8,25,121,500,95,"L  ",1.3,1.67,29,1,1,1,0,45
1,1,47,"folder/matchedM021SL.png",6,3.614862513,1,1,1,1,1,0.947916667,"Selected",1.621348783,0,8,25,121,500,95,"L  ",1.3,1.67,29,1,3,0,0,46
1,1,48,"folder/matchedM049.png  ",2,2.219771571,1,3,1,3,1,0.947916667,"Selected",0.348485223,0,8,25,121,500,95,"L  ",1.3,1.67,29,1,1,1,0,47
1,1,49,"folder/matchedM008IN.png",4,1.301157901,1,1,1,1,1,0.947916667,"Selected",-0.489646422,0,8,25,121,500,95,"L  ",1.3,1.67,29,1,2,0,1,48
1,1,51,"folder/matchedM008SR.png",6,1.509418861,1,3,1,3,1,0.947916667,"Selected",-0.299631722,0,8,25,121,500,95,"L  ",1.3,1.67,29,1,3,0,0,50
1,1,52,"folder/matchedM017SR.png",6,3.287383888,1,2,1,2,1,0.947916667,"Selected",1.322561374,0,8,25,121,500,95,"L  ",1.3,1.67,29,1,3,0,0,51
1,1,53,"folder/matchedM008IN.png",3,1.409459941,1,1,2,1,1,0.947916667,"Selected",-0.390832992,0,8,25,121,500,95,"L  ",1.3,1.67,29,1,2,0,1,52
1,1,54,"folder/matchedM017IN.png",4,2.112690841,1,2,1,2,1,0.947916667,"Selected",0.250786102,0,8,25,121,500,95,"L  ",1.3,1.67,29,1,2,0,1,53
1,1,55,"folder/matchedM005SR.png",5,1.634343718,1,2,2,2,1,0.947916667,"Selected",-0.185651842,0,8,25,121,500,95,"L  ",1.3,1.67,29,1,3,0,0,54
1,1,56,"folder/matchedM019IN.png",3,1.75475828,1,4,2,4,1,0.947916667,"Selected",-0.075787098,0,8,25,121,500,95,"L  ",1.3,1.67,29,1,2,0,1,55
1,1,57,"folder/matchedM006.png  ",2,2.132328332,1,4,1,4,1,0.947916667,"Selected",0.268703104,0,8,25,121,500,95,"L  ",1.3,1.67,29,1,1,1,0,56
1,1,59,"folder/matchedM005IN.png",4,1.770041397,1,2,1,2,1,0.947916667,"Selected",-0.061842973,0,8,25,121,500,95,"L  ",1.3,1.67,29,1,2,0,1,58
1,1,60,"folder/matchedM049SL.png",6,2.319531037,1,1,1,1,1,0.947916667,"Selected",0.439504515,0,8,25,121,500,95,"L  ",1.3,1.67,29,1,3,0,0,59
1,1,61,"folder/matchedM004IN.png",4,2.214728216,1,3,1,3,1,0.947916667,"Selected",0.343883729,0,8,25,121,500,95,"L  ",1.3,1.67,29,1,2,0,1,60
1,1,62,"folder/matchedM019SL.png",6,3.214549482,1,2,1,2,1,0.947916667,"Selected",1.25610817,0,8,25,121,500,95,"L  ",1.3,1.67,29,1,3,0,0,61
1,1,63,"folder/matchedM004SL.png",5,1.224187294,1,1,2,1,1,0.947916667,"Selected",-0.559873442,0,8,25,121,500,95,"L  ",1.3,1.67,29,1,3,0,0,62
1,1,64,"folder/matchedM017IN.png",3,1.76540081,1,3,2,3,1,0.947916667,"Selected",-0.066076987,0,8,25,121,500,95,"L  ",1.3,1.67,29,1,2,0,1,63
1,1,65,"folder/matchedM002IN.png",4,2.079603409,1,4,1,4,1,0.947916667,"Selected",0.220597542,0,8,25,121,500,95,"L  ",1.3,1.67,29,1,2,0,1,64
1,1,66,"folder/matchedM049.png  ",1,1.53437478,1,1,2,1,1,0.947916667,"Selected",-0.276862253,0,8,25,121,500,95,"L  ",1.3,1.67,29,1,1,1,0,65
1,1,67,"folder/matchedM003IN.png",3,2.234155885,1,1,2,1,1,0.947916667,"Selected",0.361609292,0,8,25,121,500,95,"L  ",1.3,1.67,29,1,2,0,1,66
1,1,68,"folder/matchedM020SR.png",5,1.152094438,1,3,2,3,1,0.947916667,"Selected",-0.625650064,0,8,25,121,500,95,"L  ",1.3,1.67,29,1,3,0,0,67
1,1,69,"folder/matchedM017.png  ",1,1.133737055,1,4,2,4,1,0.947916667,"Selected",-0.642399112,0,8,25,121,500,95,"L  ",1.3,1.67,29,1,1,1,0,68
1,1,70,"folder/matchedM019.png  ",1,1.470658014,1,4,2,4,1,0.947916667,"Selected",-0.334996634,0,8,25,121,500,95,"L  ",1.3,1.67,29,1,1,1,0,69
1,1,71,"folder/matchedM016SL.png",6,3.252878794,1,2,1,2,1,0.947916667,"Selected",1.291079356,0,8,25,121,500,95,"L  ",1.3,1.67,29,1,3,0,0,70
1,1,72,"folder/matchedM004.png  ",2,1.27465067,1,1,1,1,1,0.947916667,"Selected",-0.513831288,0,8,25,121,500,95,"L  ",1.3,1.67,29,1,1,1,0,71
1,1,73,"folder/matchedM024.png  ",2,1.308555032,1,2,1,2,1,0.947916667,"Selected",-0.482897372,0,8,25,121,500,95,"L  ",1.3,1.67,29,1,1,1,0,72
1,1,74,"folder/matchedM072SL.png",6,1.54669953,1,4,1,4,1,0.947916667,"Selected",-0.265617305,0,8,25,121,500,95,"L  ",1.3,1.67,29,1,3,0,0,73
1,1,75,"folder/matchedM005IN.png",3,1.97610809,1,3,2,3,1,0.947916667,"Selected",0.126169705,0,8,25,121,500,95,"L  ",1.3,1.67,29,1,2,0,1,74
1,1,76,"folder/matchedM008SR.png",5,1.579689275,1,1,2,1,1,0.947916667,"Selected",-0.235517873,0,8,25,121,500,95,"L  ",1.3,1.67,29,1,3,0,0,75
1,1,77,"folder/matchedM002SL.png",6,1.976600226,1,2,1,2,1,0.947916667,"Selected",0.126618723,0,8,25,121,500,95,"L  ",1.3,1.67,29,1,3,0,0,76
1,1,79,"folder/matchedM003.png  ",1,1.589870006,1,4,2,4,1,0.947916667,"Selected",-0.226229101,0,8,25,121,500,95,"L  ",1.3,1.67,29,1,1,1,0,78
1,1,80,"folder/matchedM017SR.png",5,2.313070963,1,2,2,2,1,0.947916667,"Selected",0.433610424,0,8,25,121,500,95,"L  ",1.3,1.67,29,1,3,0,0,79
1,1,81,"folder/matchedM003.png  ",2,3.645235525,1,4,1,4,1,0.947916667,"Selected",1.64906074,0,8,25,121,500,95,"L  ",1.3,1.67,29,1,1,1,0,80
1,1,82,"folder/matchedM024SR.png",6,3.946969447,1,1,1,1,1,0.947916667,"Selected",1.924359003,0,8,25,121,500,95,"L  ",1.3,1.67,29,1,3,0,0,81
1,1,83,"folder/matchedM005.png  ",2,1.742761404,1,4,1,4,1,0.947916667,"Selected",-0.086732898,0,8,25,121,500,95,"L  ",1.3,1.67,29,1,1,1,0,82
1,1,84,"folder/matchedM072SL.png",5,2.984560403,1,3,2,3,1,0.947916667,"Selected",1.046269006,0,8,25,121,500,95,"L  ",1.3,1.67,29,1,3,0,0,83
1,1,85,"folder/matchedM001SR.png",5,3.124548795,1,3,2,3,1,0.947916667,"Selected",1.173992667,0,8,25,121,500,95,"L  ",1.3,1.67,29,1,3,0,0,84
1,1,87,"folder/matchedM024.png  ",1,1.173476417,1,1,2,1,1,0.947916667,"Selected",-0.606141414,0,8,25,121,500,95,"L  ",1.3,1.67,29,1,1,1,0,86
1,1,88,"folder/matchedM021IN.png",4,4.101152403,1,3,1,3,1,0.947916667,"Selected",2.065033607,0,8,25,121,500,95,"L  ",1.3,1.67,29,1,2,0,1,87
1,1,89,"folder/matchedM019SL.png",5,1.886002168,1,3,2,3,1,0.947916667,"Selected",0.043958186,0,8,25,121,500,95,"L  ",1.3,1.67,29,1,3,0,0,88
1,1,90,"folder/matchedM021IN.png",3,1.734850024,1,3,2,3,1,0.947916667,"Selected",-0.093951142,0,8,25,121,500,95,"L  ",1.3,1.67,29,1,2,0,1,89
1,1,91,"folder/matchedM016SL.png",5,1.011221627,1,1,2,1,1,0.947916667,"Selected",-0.754180658,0,8,25,121,500,95,"L  ",1.3,1.67,29,1,3,0,0,90
1,1,92,"folder/matchedM001.png  ",1,1.425216941,1,3,2,3,1,0.947916667,"Selected",-0.376456502,0,8,25,121,500,95,"L  ",1.3,1.67,29,1,1,1,0,91
1,1,93,"folder/matchedM020IN.png",4,1.573702306,1,2,1,2,1,0.947916667,"Selected",-0.240980308,0,8,25,121,500,95,"L  ",1.3,1.67,29,1,2,0,1,92
1,1,94,"folder/matchedM067.png  ",2,1.682289686,1,1,1,1,1,0.947916667,"Selected",-0.141906538,0,8,25,121,500,95,"L  ",1.3,1.67,29,1,1,1,0,93
1,1,95,"folder/matchedM003IN.png",4,4.75445006,1,2,1,2,1,0.947916667,"Selected",2.661094234,0,8,25,121,500,95,"L  ",1.3,1.67,29,1,2,0,1,94
1,1,96,"folder/matchedM019IN.png",4,4.154964221,1,2,1,2,1,0.947916667,"Selected",2.114130838,0,8,25,121,500,95,"L  ",1.3,1.67,29,1,2,0,1,95
1,2,1,"folder/matchedM005SR.png",6,1.284382145,1,1,1,1,1,0.947916667,"Selected",-0.504952412,0,8,25,121,500,95,"L  ",1.3,1.67,29,1,3,0,0,0
1,2,2,"folder/matchedM019.png  ",2,1.184771283,1,2,1,2,1,0.947916667,"Selected",-0.595836119,0,8,25,121,500,95,"L  ",1.3,1.67,29,1,1,1,0,1
1,2,3,"folder/matchedM008IN.png",3,0.990626459,1,4,2,4,1,0.947916667,"Selected",-0.772971433,0,8,25,121,500,95,"L  ",1.3,1.67,29,1,2,0,1,2
1,2,4,"folder/matchedM024SR.png",6,1.249849095,1,1,1,1,1,0.947916667,"Selected",-0.536459935,0,8,25,121,500,95,"L  ",1.3,1.67,29,1,3,0,0,3
1,2,5,"folder/matchedM020SR.png",6,1.288665111,1,1,1,1,1,0.947916667,"Selected",-0.501044687,0,8,25,121,500,95,"L  ",1.3,1.67,29,1,3,0,0,4
1,2,6,"folder/matchedM024.png  ",2,1.467102784,1,3,1,3,1,0.947916667,"Selected",-0.338240382,0,8,25,121,500,95,"L  ",1.3,1.67,29,1,1,1,0,5
1,2,7,"folder/matchedM067IN.png",4,1.789806195,1,3,1,3,1,0.947916667,"Selected",-0.043809818,0,8,25,121,500,95,"L  ",1.3,1.67,29,1,2,0,1,6
1,2,8,"folder/matchedM016IN.png",3,1.178149834,1,1,2,1,1,0.947916667,"Selected",-0.601877446,0,8,25,121,500,95,"L  ",1.3,1.67,29,1,2,0,1,7
1,2,9,"folder/matchedM019SL.png",6,2.718144371,1,3,1,3,1,0.947916667,"Selected",0.803194344,0,8,25,121,500,95,"L  ",1.3,1.67,29,1,3,0,0,8
1,2,10,"folder/matchedM001.png  ",1,1.039964316,1,1,2,1,1,0.947916667,"Selected",-0.727956187,0,8,25,121,500,95,"L  ",1.3,1.67,29,1,1,1,0,9
1,2,11,"folder/matchedM049SL.png",6,1.178133804,1,1,1,1,1,0.947916667,"Selected",-0.601892071,0,8,25,121,500,95,"L  ",1.3,1.67,29,1,3,0,0,10
1,2,12,"folder/matchedM005SR.png",5,0.872888396,1,4,2,4,1,0.947916667,"Selected",-0.880394171,0,8,25,121,500,95,"L  ",1.3,1.67,29,1,3,0,0,11
1,2,13,"folder/matchedM008IN.png",4,1.127445735,1,1,1,1,1,0.947916667,"Selected",-0.648139233,0,8,25,121,500,95,"L  ",1.3,1.67,29,1,2,0,1,12
1,2,14,"folder/matchedM003SR.png",6,4.877543502,1,4,1,4,1,0.947916667,"Selected",2.773403153,0,8,25,121,500,95,"L  ",1.3,1.67,29,1,3,0,0,13
1,2,15,"folder/matchedM049SL.png",5,1.136086921,1,4,2,4,1,0.947916667,"Selected",-0.640255123,0,8,25,121,500,95,"L  ",1.3,1.67,29,1,3,0,0,14
1,2,16,"folder/matchedM004.png  ",2,1.017650551,1,1,1,1,1,0.947916667,"Selected",-0.748314988,0,8,25,121,500,95,"L  ",1.3,1.67,29,1,1,1,0,15
1,2,17,"folder/matchedM019.png  ",1,1.316906593,1,4,2,4,1,0.947916667,"Selected",-0.475277512,0,8,25,121,500,95,"L  ",1.3,1.67,29,1,1,1,0,16
1,2,18,"folder/matchedM006SL.png",5,1.149329135,1,4,2,4,1,0.947916667,"Selected",-0.628173092,0,8,25,121,500,95,"L  ",1.3,1.67,29,1,3,0,0,17
1,2,19,"folder/matchedM001SR.png",5,2.086219302,1,2,2,2,1,0.947916667,"Selected",0.2266338,0,8,25,121,500,95,"L  ",1.3,1.67,29,1,3,0,0,18
1,2,20,"folder/matchedM017IN.png",3,1.147587181,1,3,2,3,1,0.947916667,"Selected",-0.629762429,0,8,25,121,500,95,"L  ",1.3,1.67,29,1,2,0,1,19
1,2,21,"folder/matchedM016.png  ",1,1.02242775,1,1,2,1,1,0.947916667,"Selected",-0.743956331,0,8,25,121,500,95,"L  ",1.3,1.67,29,1,1,1,0,20
1,2,22,"folder/matchedM002SL.png",5,1.085902006,1,4,2,4,1,0.947916667,"Selected",-0.686043213,0,8,25,121,500,95,"L  ",1.3,1.67,29,1,3,0,0,21
1,2,23,"folder/matchedM016SL.png",6,1.093227514,1,1,1,1,1,0.947916667,"Selected",-0.679359511,0,8,25,121,500,95,"L  ",1.3,1.67,29,1,3,0,0,22
1,2,24,"folder/matchedM067.png  ",1,1.126879427,1,4,2,4,1,0.947916667,"Selected",-0.648655925,0,8,25,121,500,95,"L  ",1.3,1.67,29,1,1,1,0,23
1,2,25,"folder/matchedM008.png  ",2,1.154658506,1,2,1,2,1,0.947916667,"Selected",-0.62331064,0,8,25,121,500,95,"L  ",1.3,1.67,29,1,1,1,0,24
1,2,26,"folder/matchedM006.png  ",1,1.005945131,1,1,2,1,1,0.947916667,"Selected",-0.758994867,0,8,25,121,500,95,"L  ",1.3,1.67,29,1,1,1,0,25
1,2,27,"folder/matchedM049.png  ",1,1.000397882,1,4,2,4,1,0.947916667,"Selected",-0.764056108,0,8,25,121,500,95,"L  ",1.3,1.67,29,1,1,1,0,26
1,2,28,"folder/matchedM006SL.png",6,0.855814041,1,4,1,4,1,0.947916667,"Selected",-0.8959726,0,8,25,121,500,95,"L  ",1.3,1.67,29,1,3,0,0,27
1,2,29,"folder/matchedM072IN.png",3,0.964708566,1,3,2,3,1,0.947916667,"Selected",-0.796618595,0,8,25,121,500,95,"L  ",1.3,1.67,29,1,2,0,1,28
1,2,30,"folder/matchedM021SL.png",5,1.33268143,1,4,2,4,1,0.947916667,"Selected",-0.460884747,0,8,25,121,500,95,"L  ",1.3,1.67,29,1,3,0,0,29
1,2,31,"folder/matchedM019IN.png",3,1.262904359,1,3,2,3,1,0.947916667,"Selected",-0.524548476,0,8,25,121,500,95,"L  ",1.3,1.67,29,1,2,0,1,30
1,2,32,"folder/matchedM003IN.png",4,2.25600418,1,1,1,1,1,0.947916667,"Selected",0.381543403,0,8,25,121,500,95,"L  ",1.3,1.67,29,1,2,0,1,31
1,2,33,"folder/matchedM067SR.png",5,1.06703872,1,4,2,4,1,0.947916667,"Selected",-0.703253839,0,8,25,121,500,95,"L  ",1.3,1.67,29,1,3,0,0,32
1,2,34,"folder/matchedM021SL.png",6,2.35412853,1,2,1,2,1,0.947916667,"Selected",0.471070835,0,8,25,121,500,95,"L  ",1.3,1.67,29,1,3,0,0,33
1,2,35,"folder/matchedM067SR.png",6,1.636149348,1,2,1,2,1,0.947916667,"Selected",-0.184004407,0,8,25,121,500,95,"L  ",1.3,1.67,29,1,3,0,0,34
1,2,36,"folder/matchedM016IN.png",4,2.296062995,1,1,1,1,1,0.947916667,"Selected",0.418092566,0,8,25,121,500,95,"L  ",1.3,1.67,29,1,2,0,1,35
1,2,37,"folder/matchedM003SR.png",5,1.50642845,1,2,2,2,1,0.947916667,"Selected",-0.302360135,0,8,25,121,500,95,"L  ",1.3,1.67,29,1,3,0,0,36
1,2,38,"folder/matchedM024IN.png",4,1.155590781,1,2,1,2,1,0.947916667,"Selected",-0.622460044,0,8,25,121,500,95,"L  ",1.3,1.67,29,1,2,0,1,37
1,2,39,"folder/matchedM072.png  ",2,1.916018216,1,1,1,1,1,0.947916667,"Selected",0.071344454,0,8,25,121,500,95,"L  ",1.3,1.67,29,1,1,1,0,38
1,2,40,"folder/matchedM017IN.png",4,2.325669046,1,1,1,1,1,0.947916667,"Selected",0.445104757,0,8,25,121,500,95,"L  ",1.3,1.67,29,1,2,0,1,39
1,2,42,"folder/matchedM006IN.png",3,2.274928935,1,1,2,1,1,0.947916667,"Selected",0.398810114,0,8,25,121,500,95,"L  ",1.3,1.67,29,1,2,0,1,41
1,2,43,"folder/matchedM019IN.png",4,1.196835351,1,4,1,4,1,0.947916667,"Selected",-0.584829014,0,8,25,121,500,95,"L  ",1.3,1.67,29,1,2,0,1,42
1,2,44,"folder/matchedM008.png  ",1,1.671310705,1,2,2,2,1,0.947916667,"Selected",-0.151923624,0,8,25,121,500,95,"L  ",1.3,1.67,29,1,1,1,0,43
1,2,45,"folder/matchedM067IN.png",3,1.824070961,1,2,2,2,1,0.947916667,"Selected",-0.012547074,0,8,25,121,500,95,"L  ",1.3,1.67,29,1,2,0,1,44
1,2,46,"folder/matchedM001SR.png",6,2.044946541,1,3,1,3,1,0.947916667,"Selected",0.188977048,0,8,25,121,500,95,"L  ",1.3,1.67,29,1,3,0,0,45
1,2,47,"folder/matchedM020.png  ",2,1.354818644,1,1,1,1,1,0.947916667,"Selected",-0.440687029,0,8,25,121,500,95,"L  ",1.3,1.67,29,1,1,1,0,46
1,2,48,"folder/matchedM002IN.png",3,1.785336065,1,1,2,1,1,0.947916667,"Selected",-0.047888309,0,8,25,121,500,95,"L  ",1.3,1.67,29,1,2,0,1,47
1,2,49,"folder/matchedM072IN.png",4,1.643929973,1,2,1,2,1,0.947916667,"Selected",-0.176905462,0,8,25,121,500,95,"L  ",1.3,1.67,29,1,2,0,1,48
1,2,50,"folder/matchedM001.png  ",2,0.908281353,1,4,1,4,1,0.947916667,"Selected",-0.848102079,0,8,25,121,500,95,"L  ",1.3,1.67,29,1,1,1,0,49
1,2,52,"folder/matchedM005.png  ",1,1.144848614,1,3,2,3,1,0.947916667,"Selected",-0.632261063,0,8,25,121,500,95,"L  ",1.3,1.67,29,1,1,1,0,51
1,2,53,"folder/matchedM024.png  ",1,1.205013288,1,3,2,3,1,0.947916667,"Selected",-0.577367566,0,8,25,121,500,95,"L  ",1.3,1.67,29,1,1,1,0,52
1,2,54,"folder/matchedM002.png  ",2,0.946024568,1,2,1,2,1,0.947916667,"Selected",-0.813665641,0,8,25,121,500,95,"L  ",1.3,1.67,29,1,1,1,0,53
1,2,55,"folder/matchedM005.png  ",2,1.113475136,1,2,1,2,1,0.947916667,"Selected",-0.660885834,0,8,25,121,500,95,"L  ",1.3,1.67,29,1,1,1,0,54
1,2,56,"folder/matchedM017SR.png",5,0.865004671,1,3,2,3,1,0.947916667,"Selected",-0.887587184,0,8,25,121,500,95,"L  ",1.3,1.67,29,1,3,0,0,55
1,2,57,"folder/matchedM003.png  ",2,1.314078507,1,3,1,3,1,0.947916667,"Selected",-0.477857821,0,8,25,121,500,95,"L  ",1.3,1.67,29,1,1,1,0,56
1,2,58,"folder/matchedM002.png  ",1,1.125257905,1,4,2,4,1,0.947916667,"Selected",-0.650135382,0,8,25,121,500,95,"L  ",1.3,1.67,29,1,1,1,0,57
1,2,59,"folder/matchedM021IN.png",4,1.393337068,1,1,1,1,1,0.947916667,"Selected",-0.4055433,0,8,25,121,500,95,"L  ",1.3,1.67,29,1,2,0,1,58
1,2,60,"folder/matchedM049.png  ",2,0.993855928,1,4,1,4,1,0.947916667,"Selected",-0.770024905,0,8,25,121,500,95,"L  ",1.3,1.67,29,1,1,1,0,59
1,2,61,"folder/matchedM016SL.png",5,1.014568069,1,2,2,2,1,0.947916667,"Selected",-0.751127406,0,8,25,121,500,95,"L  ",1.3,1.67,29,1,3,0,0,60
1,2,62,"folder/matchedM072.png  ",1,1.015100727,1,1,2,1,1,0.947916667,"Selected",-0.750641416,0,8,25,121,500,95,"L  ",1.3,1.67,29,1,1,1,0,61
1,2,63,"folder/matchedM003.png  ",1,1.495876916,1,3,2,3,1,0.947916667,"Selected",-0.311987223,0,8,25,121,500,95,"L  ",1.3,1.67,29,1,1,1,0,62
1,2,64,"folder/matchedM067.png  ",2,1.394884978,1,2,1,2,1,0.947916667,"Selected",-0.404131007,0,8,25,121,500,95,"L  ",1.3,1.67,29,1,1,1,0,63
1,2,65,"folder/matchedM017.png  ",2,1.305399994,1,4,1,4,1,0.947916667,"Selected",-0.485775988,0,8,25,121,500,95,"L  ",1.3,1.67,29,1,1,1,0,64
1,2,67,"folder/matchedM072SL.png",5,1.393046747,1,1,2,1,1,0.947916667,"Selected",-0.405808186,0,8,25,121,500,95,"L  ",1.3,1.67,29,1,3,0,0,66
1,2,68,"folder/matchedM001IN.png",4,1.413246805,1,3,1,3,1,0.947916667,"Selected",-0.387377905,0,8,25,121,500,95,"L  ",1.3,1.67,29,1,2,0,1,67
1,2,69,"folder/matchedM024IN.png",3,0.963019578,1,4,2,4,1,0.947916667,"Selected",-0.798159606,0,8,25,121,500,95,"L  ",1.3,1.67,29,1,2,0,1,68
1,2,70,"folder/matchedM020.png  ",1,0.922488308,1,4,2,4,1,0.947916667,"Selected",-0.835139831,0,8,25,121,500,95,"L  ",1.3,1.67,29,1,1,1,0,69
1,2,72,"folder/matchedM021.png  ",1,1.822227466,1,2,2,2,1,0.947916667,"Selected",-0.014229055,0,8,25,121,500,95,"L  ",1.3,1.67,29,1,1,1,0,71
1,2,73,"folder/matchedM002SL.png",6,1.775120962,1,3,1,3,1,0.947916667,"Selected",-0.057208442,0,8,25,121,500,95,"L  ",1.3,1.67,29,1,3,0,0,72
1,2,74,"folder/matchedM021IN.png",3,2.047138484,1,2,2,2,1,0.947916667,"Selected",0.19097695,0,8,25,121,500,95,"L  ",1.3,1.67,29,1,2,0,1,73
1,2,75,"folder/matchedM004IN.png",4,1.554994884,1,1,1,1,1,0.947916667,"Selected",-0.258048727,0,8,25,121,500,95,"L  ",1.3,1.67,29,1,2,0,1,74
1,2,76,"folder/matchedM021.png  ",2,1.065500344,1,1,1,1,1,0.947916667,"Selected",-0.704657434,0,8,25,121,500,95,"L  ",1.3,1.67,29,1,1,1,0,75
1,2,77,"folder/matchedM020IN.png",3,0.985842076,1,4,2,4,1,0.947916667,"Selected",-0.777336644,0,8,25,121,500,95,"L  ",1.3,1.67,29,1,2,0,1,76
1,2,78,"folder/matchedM016.png  ",2,1.035639099,1,3,1,3,1,0.947916667,"Selected",-0.731902462,0,8,25,121,500,95,"L  ",1.3,1.67,29,1,1,1,0,77
1,2,79,"folder/matchedM004IN.png",3,1.396045465,1,1,2,1,1,0.947916667,"Selected",-0.403072192,0,8,25,121,500,95,"L  ",1.3,1.67,29,1,2,0,1,78
1,2,80,"folder/matchedM005IN.png",4,3.056816025,1,4,1,4,1,0.947916667,"Selected",1.112194133,0,8,25,121,500,95,"L  ",1.3,1.67,29,1,2,0,1,79
1,2,81,"folder/matchedM049IN.png",3,1.147501396,1,3,2,3,1,0.947916667,"Selected",-0.629840698,0,8,25,121,500,95,"L  ",1.3,1.67,29,1,2,0,1,80
1,2,82,"folder/matchedM002IN.png",4,1.005059002,1,1,1,1,1,0.947916667,"Selected",-0.75980336,0,8,25,121,500,95,"L  ",1.3,1.67,29,1,2,0,1,81
1,2,83,"folder/matchedM005IN.png",3,1.362360831,1,4,2,4,1,0.947916667,"Selected",-0.433805632,0,8,25,121,500,95,"L  ",1.3,1.67,29,1,2,0,1,82
1,2,84,"folder/matchedM003IN.png",3,1.217265212,1,4,2,4,1,0.947916667,"Selected",-0.566189063,0,8,25,121,500,95,"L  ",1.3,1.67,29,1,2,0,1,83
1,2,85,"folder/matchedM004SL.png",5,1.477339327,1,1,2,1,1,0.947916667,"Selected",-0.328900688,0,8,25,121,500,95,"L  ",1.3,1.67,29,1,3,0,0,84
1,2,86,"folder/matchedM024SR.png",5,2.033889879,1,3,2,3,1,0.947916667,"Selected",0.178889088,0,8,25,121,500,95,"L  ",1.3,1.67,29,1,3,0,0,85
1,2,87,"folder/matchedM020SR.png",5,2.706543232,1,3,2,3,1,0.947916667,"Selected",0.79260961,0,8,25,121,500,95,"L  ",1.3,1.67,29,1,3,0,0,86
1,2,88,"folder/matchedM017SR.png",6,1.805728882,1,2,1,2,1,0.947916667,"Selected",-0.029282158,0,8,25,121,500,95,"L  ",1.3,1.67,29,1,3,0,0,87
1,2,89,"folder/matchedM020IN.png",4,1.445989003,1,3,1,3,1,0.947916667,"Selected",-0.357504332,0,8,25,121,500,95,"L  ",1.3,1.67,29,1,2,0,1,88
1,2,90,"folder/matchedM049IN.png",4,1.233513979,1,2,1,2,1,0.947916667,"Selected",-0.551363891,0,8,25,121,500,95,"L  ",1.3,1.67,29,1,2,0,1,89
1,2,91,"folder/matchedM006.png  ",2,1.222670839,1,2,1,2,1,0.947916667,"Selected",-0.561257037,0,8,25,121,500,95,"L  ",1.3,1.67,29,1,1,1,0,90
1,2,92,"folder/matchedM008SR.png",5,1.134867159,1,4,2,4,1,0.947916667,"Selected",-0.641368018,0,8,25,121,500,95,"L  ",1.3,1.67,29,1,3,0,0,91
1,2,93,"folder/matchedM001IN.png",3,1.345940772,1,2,2,2,1,0.947916667,"Selected",-0.448787089,0,8,25,121,500,95,"L  ",1.3,1.67,29,1,2,0,1,92
1,2,94,"folder/matchedM019SL.png",5,1.113276389,1,3,2,3,1,0.947916667,"Selected",-0.661067167,0,8,25,121,500,95,"L  ",1.3,1.67,29,1,3,0,0,93
1,2,95,"folder/matchedM072SL.png",6,3.013668273,1,4,1,4,1,0.947916667,"Selected",1.072826663,0,8,25,121,500,95,"L  ",1.3,1.67,29,1,3,0,0,94
1,2,96,"folder/matchedM004SL.png",6,1.566784585,1,4,1,4,1,0.947916667,"Selected",-0.247291951,0,8,25,121,500,95,"L  ",1.3,1.67,29,1,3,0,0,95
2,2,1,"folder/matchedM049.png  ",1,1.317236992,1,2,2,2,1,0.921875,"Selected",-0.499945689,0,13,33,125,507,99,"R  ",0.81,0.81,32,1,1,1,0,0
2,2,2,"folder/matchedM017SR.png",5,2.755994724,1,3,2,3,1,0.921875,"Selected",0.51636961,0,13,33,125,507,99,"R  ",0.81,0.81,32,1,3,0,0,1
2,2,3,"folder/matchedM008SR.png",6,0.675573234,1,4,1,4,1,0.921875,"Selected",-0.953206638,0,13,33,125,507,99,"R  ",0.81,0.81,32,1,3,0,0,2
2,2,4,"folder/matchedM020.png  ",1,1.036725531,1,2,2,2,1,0.921875,"Selected",-0.698094469,0,13,33,125,507,99,"R  ",0.81,0.81,32,1,1,1,0,3
2,2,5,"folder/matchedM020SR.png",6,0.967955896,1,1,1,1,1,0.921875,"Selected",-0.746672233,0,13,33,125,507,99,"R  ",0.81,0.81,32,1,3,0,0,4
2,2,6,"folder/matchedM019.png  ",2,0.740008081,1,4,1,4,1,0.921875,"Selected",-0.907690899,0,13,33,125,507,99,"R  ",0.81,0.81,32,1,1,1,0,5
2,2,7,"folder/matchedM002SL.png",6,0.837138231,1,1,1,1,1,0.921875,"Selected",-0.839079725,0,13,33,125,507,99,"R  ",0.81,0.81,32,1,3,0,0,6
2,2,8,"folder/matchedM002IN.png",3,2.126670794,1,4,2,4,1,0.921875,"Selected",0.071825317,0,13,33,125,507,99,"R  ",0.81,0.81,32,1,2,0,1,7
2,2,9,"folder/matchedM021.png  ",1,2.014998455,1,3,2,3,1,0.921875,"Selected",-0.007058225,0,13,33,125,507,99,"R  ",0.81,0.81,32,1,1,1,0,8
2,2,10,"folder/matchedM003IN.png",3,2.480343356,1,3,2,3,1,0.921875,"Selected",0.321653921,0,13,33,125,507,99,"R  ",0.81,0.81,32,1,2,0,1,9
2,2,11,"folder/matchedM020IN.png",3,2.025101596,1,4,2,4,1,0.921875,"Selected",7.85e-05,0,13,33,125,507,99,"R  ",0.81,0.81,32,1,2,0,1,10
2,2,12,"folder/matchedM072SL.png",5,1.585801468,1,4,2,4,1,0.921875,"Selected",-0.310236067,0,13,33,125,507,99,"R  ",0.81,0.81,32,1,3,0,0,11
2,2,13,"folder/matchedM049SL.png",6,0.975842681,1,3,1,3,1,0.921875,"Selected",-0.741101134,0,13,33,125,507,99,"R  ",0.81,0.81,32,1,3,0,0,12
2,2,14,"folder/matchedM001IN.png",3,1.166964704,1,2,2,2,1,0.921875,"Selected",-0.606095615,0,13,33,125,507,99,"R  ",0.81,0.81,32,1,2,0,1,13
2,2,15,"folder/matchedM017IN.png",3,2.008138105,1,2,2,2,1,0.921875,"Selected",-0.011904266,0,13,33,125,507,99,"R  ",0.81,0.81,32,1,2,0,1,14
2,2,16,"folder/matchedM005SR.png",5,3.253191599,1,4,2,4,1,0.921875,"Selected",0.867581478,0,13,33,125,507,99,"R  ",0.81,0.81,32,1,3,0,0,15
2,2,17,"folder/matchedM024SR.png",6,0.885931698,1,3,1,3,1,0.921875,"Selected",-0.804612806,0,13,33,125,507,99,"R  ",0.81,0.81,32,1,3,0,0,16
2,2,18,"folder/matchedM005IN.png",3,4.746552958,1,4,2,4,1,0.921875,"Selected",1.922467901,0,13,33,125,507,99,"R  ",0.81,0.81,32,1,2,0,1,17
2,2,19,"folder/matchedM001IN.png",4,0.705675984,1,4,1,4,1,0.921875,"Selected",-0.93194254,0,13,33,125,507,99,"R  ",0.81,0.81,32,1,2,0,1,18
2,2,20,"folder/matchedM001.png  ",2,0.751922492,1,4,1,4,1,0.921875,"Selected",-0.899274751,0,13,33,125,507,99,"R  ",0.81,0.81,32,1,1,1,0,19
2,2,21,"folder/matchedM002.png  ",1,1.935895619,1,3,2,3,1,0.921875,"Selected",-0.062935195,0,13,33,125,507,99,"R  ",0.81,0.81,32,1,1,1,0,20
2,2,22,"folder/matchedM019SL.png",6,0.794536427,1,4,1,4,1,0.921875,"Selected",-0.869172953,0,13,33,125,507,99,"R  ",0.81,0.81,32,1,3,0,0,21
2,2,24,"folder/matchedM067.png  ",2,1.574073766,1,2,1,2,1,0.921875,"Selected",-0.318520327,0,13,33,125,507,99,"R  ",0.81,0.81,32,1,1,1,0,23
2,2,26,"folder/matchedM006SL.png",5,2.155288995,1,4,2,4,1,0.921875,"Selected",0.092040754,0,13,33,125,507,99,"R  ",0.81,0.81,32,1,3,0,0,25
2,2,27,"folder/matchedM021.png  ",2,1.383277644,1,1,1,1,1,0.921875,"Selected",-0.453295636,0,13,33,125,507,99,"R  ",0.81,0.81,32,1,1,1,0,26
2,2,28,"folder/matchedM067IN.png",4,0.835203237,1,4,1,4,1,0.921875,"Selected",-0.840446573,0,13,33,125,507,99,"R  ",0.81,0.81,32,1,2,0,1,27
2,2,29,"folder/matchedM002SL.png",5,2.275970529,1,3,2,3,1,0.921875,"Selected",0.177288247,0,13,33,125,507,99,"R  ",0.81,0.81,32,1,3,0,0,28
2,2,30,"folder/matchedM004IN.png",4,0.754840636,1,4,1,4,1,0.921875,"Selected",-0.897213421,0,13,33,125,507,99,"R  ",0.81,0.81,32,1,2,0,1,29
2,2,31,"folder/matchedM016SL.png",5,2.003044555,1,2,2,2,1,0.921875,"Selected",-0.015502268,0,13,33,125,507,99,"R  ",0.81,0.81,32,1,3,0,0,30
2,2,32,"folder/matchedM016IN.png",4,1.665860139,1,1,1,1,1,0.921875,"Selected",-0.253683911,0,13,33,125,507,99,"R  ",0.81,0.81,32,1,2,0,1,31
2,2,33,"folder/matchedM003SR.png",5,1.445351466,1,1,2,1,1,0.921875,"Selected",-0.409447687,0,13,33,125,507,99,"R  ",0.81,0.81,32,1,3,0,0,32
2,2,34,"folder/matchedM001SR.png",6,0.617687867,1,4,1,4,1,0.921875,"Selected",-0.99409593,0,13,33,125,507,99,"R  ",0.81,0.81,32,1,3,0,0,33
2,2,36,"folder/matchedM017IN.png",4,0.566029146,1,4,1,4,1,0.921875,"Selected",-1.030586818,0,13,33,125,507,99,"R  ",0.81,0.81,32,1,2,0,1,35
2,2,37,"folder/matchedM024IN.png",4,2.714028964,1,2,1,2,1,0.921875,"Selected",0.486725673,0,13,33,125,507,99,"R  ",0.81,0.81,32,1,2,0,1,36
2,2,38,"folder/matchedM067SR.png",5,2.284019114,1,3,2,3,1,0.921875,"Selected",0.182973638,0,13,33,125,507,99,"R  ",0.81,0.81,32,1,3,0,0,37
2,2,39,"folder/matchedM067.png  ",1,1.604035191,1,2,2,2,1,0.921875,"Selected",-0.297356059,0,13,33,125,507,99,"R  ",0.81,0.81,32,1,1,1,0,38
2,2,40,"folder/matchedM049.png  ",2,1.262172315,1,3,1,3,1,0.921875,"Selected",-0.538842491,0,13,33,125,507,99,"R  ",0.81,0.81,32,1,1,1,0,39
2,2,41,"folder/matchedM021IN.png",3,1.734407081,1,2,2,2,1,0.921875,"Selected",-0.205263455,0,13,33,125,507,99,"R  ",0.81,0.81,32,1,2,0,1,40
2,2,42,"folder/matchedM049IN.png",4,1.574166104,1,1,1,1,1,0.921875,"Selected",-0.318455101,0,13,33,125,507,99,"R  ",0.81,0.81,32,1,2,0,1,41
2,2,43,"folder/matchedM020IN.png",4,1.933733401,1,2,1,2,1,0.921875,"Selected",-0.064462551,0,13,33,125,507,99,"R  ",0.81,0.81,32,1,2,0,1,42
2,2,44,"folder/matchedM001SR.png",5,1.423570855,1,1,2,1,1,0.921875,"Selected",-0.424833161,0,13,33,125,507,99,"R  ",0.81,0.81,32,1,3,0,0,43
2,2,45,"folder/matchedM002IN.png",4,0.755851967,1,4,1,4,1,0.921875,"Selected",-0.896499033,0,13,33,125,507,99,"R  ",0.81,0.81,32,1,2,0,1,44
2,2,46,"folder/matchedM005SR.png",6,1.334778517,1,3,1,3,1,0.921875,"Selected",-0.487554638,0,13,33,125,507,99,"R  ",0.81,0.81,32,1,3,0,0,45
2,2,47,"folder/matchedM072IN.png",3,0.877613776,1,1,2,1,1,0.921875,"Selected",-0.810488452,0,13,33,125,507,99,"R  ",0.81,0.81,32,1,2,0,1,46
2,2,48,"folder/matchedM019IN.png",4,0.66715929,1,4,1,4,1,0.921875,"Selected",-0.959150112,0,13,33,125,507,99,"R  ",0.81,0.81,32,1,2,0,1,47
2,2,50,"folder/matchedM072IN.png",4,0.996363493,1,3,1,3,1,0.921875,"Selected",-0.726605563,0,13,33,125,507,99,"R  ",0.81,0.81,32,1,2,0,1,49
2,2,51,"folder/matchedM072.png  ",1,1.125579184,1,1,2,1,1,0.921875,"Selected",-0.635329679,0,13,33,125,507,99,"R  ",0.81,0.81,32,1,1,1,0,50
2,2,52,"folder/matchedM008.png  ",2,0.745192622,1,4,1,4,1,0.921875,"Selected",-0.904028623,0,13,33,125,507,99,"R  ",0.81,0.81,32,1,1,1,0,51
2,2,53,"folder/matchedM003.png  ",2,0.974408635,1,4,1,4,1,0.921875,"Selected",-0.742114122,0,13,33,125,507,99,"R  ",0.81,0.81,32,1,1,1,0,52
2,2,56,"folder/matchedM006SL.png",6,0.983498315,1,3,1,3,1,0.921875,"Selected",-0.735693318,0,13,33,125,507,99,"R  ",0.81,0.81,32,1,3,0,0,55
2,2,57,"folder/matchedM004SL.png",6,0.785491225,1,4,1,4,1,0.921875,"Selected",-0.875562339,0,13,33,125,507,99,"R  ",0.81,0.81,32,1,3,0,0,56
2,2,58,"folder/matchedM004.png  ",1,1.516376747,1,3,2,3,1,0.921875,"Selected",-0.359276573,0,13,33,125,507,99,"R  ",0.81,0.81,32,1,1,1,0,57
2,2,59,"folder/matchedM021SL.png",6,2.565306946,1,2,1,2,1,0.921875,"Selected",0.381670833,0,13,33,125,507,99,"R  ",0.81,0.81,32,1,3,0,0,58
2,2,60,"folder/matchedM017SR.png",6,1.395309993,1,1,1,1,1,0.921875,"Selected",-0.444796178,0,13,33,125,507,99,"R  ",0.81,0.81,32,1,3,0,0,59
2,2,61,"folder/matchedM072SL.png",6,0.80507393,1,4,1,4,1,0.921875,"Selected",-0.861729431,0,13,33,125,507,99,"R  ",0.81,0.81,32,1,3,0,0,60
2,2,62,"folder/matchedM004SL.png",5,1.042927054,1,2,2,2,1,0.921875,"Selected",-0.693713813,0,13,33,125,507,99,"R  ",0.81,0.81,32,1,3,0,0,61
2,2,63,"folder/matchedM008IN.png",4,1.052470069,1,3,1,3,1,0.921875,"Selected",-0.686972781,0,13,33,125,507,99,"R  ",0.81,0.81,32,1,2,0,1,62
2,2,64,"folder/matchedM008SR.png",5,1.203808948,1,2,2,2,1,0.921875,"Selected",-0.580069434,0,13,33,125,507,99,"R  ",0.81,0.81,32,1,3,0,0,63
2,2,65,"folder/matchedM049IN.png",3,1.814091807,1,3,2,3,1,0.921875,"Selected",-0.148975447,0,13,33,125,507,99,"R  ",0.81,0.81,32,1,2,0,1,64
2,2,66,"folder/matchedM019IN.png",3,0.81315573,1,1,2,1,1,0.921875,"Selected",-0.856020578,0,13,33,125,507,99,"R  ",0.81,0.81,32,1,2,0,1,65
2,2,67,"folder/matchedM003.png  ",1,0.773247711,1,1,2,1,1,0.921875,"Selected",-0.88421096,0,13,33,125,507,99,"R  ",0.81,0.81,32,1,1,1,0,66
2,2,68,"folder/matchedM003SR.png",6,1.723443802,1,4,1,4,1,0.921875,"Selected",-0.213007739,0,13,33,125,507,99,"R  ",0.81,0.81,32,1,3,0,0,67
2,2,69,"folder/matchedM017.png  ",1,3.992730849,1,4,2,4,1,0.921875,"Selected",1.389980098,0,13,33,125,507,99,"R  ",0.81,0.81,32,1,1,1,0,68
2,2,70,"folder/matchedM016SL.png",6,0.645581768,1,4,1,4,1,0.921875,"Selected",-0.974392127,0,13,33,125,507,99,"R  ",0.81,0.81,32,1,3,0,0,69
2,2,71,"folder/matchedM067IN.png",3,0.784589525,1,2,2,2,1,0.921875,"Selected",-0.876199285,0,13,33,125,507,99,"R  ",0.81,0.81,32,1,2,0,1,70
2,2,72,"folder/matchedM008IN.png",3,1.997832615,1,4,2,4,1,0.921875,"Selected",-0.019183898,0,13,33,125,507,99,"R  ",0.81,0.81,32,1,2,0,1,71
2,2,73,"folder/matchedM003IN.png",4,2.1317246,1,2,1,2,1,0.921875,"Selected",0.075395244,0,13,33,125,507,99,"R  ",0.81,0.81,32,1,2,0,1,72
2,2,74,"folder/matchedM002.png  ",2,1.144983098,1,3,1,3,1,0.921875,"Selected",-0.621623067,0,13,33,125,507,99,"R  ",0.81,0.81,32,1,1,1,0,73
2,2,75,"folder/matchedM020SR.png",5,4.203126466,1,4,2,4,1,0.921875,"Selected",1.538600175,0,13,33,125,507,99,"R  ",0.81,0.81,32,1,3,0,0,74
2,2,76,"folder/matchedM024IN.png",3,0.926103316,1,2,2,2,1,0.921875,"Selected",-0.776236221,0,13,33,125,507,99,"R  ",0.81,0.81,32,1,2,0,1,75
2,2,77,"folder/matchedM020.png  ",2,1.070064416,1,4,1,4,1,0.921875,"Selected",-0.674544418,0,13,33,125,507,99,"R  ",0.81,0.81,32,1,1,1,0,76
2,2,78,"folder/matchedM006IN.png",3,0.828719179,1,2,2,2,1,0.921875,"Selected",-0.845026808,0,13,33,125,507,99,"R  ",0.81,0.81,32,1,2,0,1,77
2,2,79,"folder/matchedM021IN.png",4,2.034452973,1,1,1,1,1,0.921875,"Selected",0.006684133,0,13,33,125,507,99,"R  ",0.81,0.81,32,1,2,0,1,78
2,2,80,"folder/matchedM005IN.png",4,1.051752991,1,3,1,3,1,0.921875,"Selected",-0.687479314,0,13,33,125,507,99,"R  ",0.81,0.81,32,1,2,0,1,79
2,2,81,"folder/matchedM006.png  ",2,0.815335767,1,4,1,4,1,0.921875,"Selected",-0.854480635,0,13,33,125,507,99,"R  ",0.81,0.81,32,1,1,1,0,80
2,2,82,"folder/matchedM006.png  ",1,2.254371523,1,3,2,3,1,0.921875,"Selected",0.162031056,0,13,33,125,507,99,"R  ",0.81,0.81,32,1,1,1,0,81
2,2,83,"folder/matchedM049SL.png",5,2.335584674,1,3,2,3,1,0.921875,"Selected",0.219398719,0,13,33,125,507,99,"R  ",0.81,0.81,32,1,3,0,0,82
2,2,84,"folder/matchedM024.png  ",2,1.705678485,1,3,1,3,1,0.921875,"Selected",-0.225556872,0,13,33,125,507,99,"R  ",0.81,0.81,32,1,1,1,0,83
2,2,85,"folder/matchedM072.png  ",2,0.94441038,1,4,1,4,1,0.921875,"Selected",-0.763304406,0,13,33,125,507,99,"R  ",0.81,0.81,32,1,1,1,0,84
2,2,86,"folder/matchedM016.png  ",2,1.534179033,1,2,1,2,1,0.921875,"Selected",-0.346701324,0,13,33,125,507,99,"R  ",0.81,0.81,32,1,1,1,0,85
2,2,87,"folder/matchedM017.png  ",2,1.633929059,1,2,1,2,1,0.921875,"Selected",-0.276239512,0,13,33,125,507,99,"R  ",0.81,0.81,32,1,1,1,0,86
2,2,88,"folder/matchedM004.png  ",2,1.164850057,1,3,1,3,1,0.921875,"Selected",-0.607589367,0,13,33,125,507,99,"R  ",0.81,0.81,32,1,1,1,0,87
2,2,89,"folder/matchedM067SR.png",6,1.043803969,1,3,1,3,1,0.921875,"Selected",-0.693094375,0,13,33,125,507,99,"R  ",0.81,0.81,32,1,3,0,0,88
2,2,90,"folder/matchedM019SL.png",5,5.600455269,1,4,2,4,1,0.921875,"Selected",2.525650746,0,13,33,125,507,99,"R  ",0.81,0.81,32,1,3,0,0,89
2,2,91,"folder/matchedM024.png  ",1,1.614193829,1,2,2,2,1,0.921875,"Selected",-0.290180161,0,13,33,125,507,99,"R  ",0.81,0.81,32,1,1,1,0,90
2,2,92,"folder/matchedM008.png  ",1,2.29184569,1,3,2,3,1,0.921875,"Selected",0.188502205,0,13,33,125,507,99,"R  ",0.81,0.81,32,1,1,1,0,91
2,2,93,"folder/matchedM005.png  ",2,1.87201332,1,2,1,2,1,0.921875,"Selected",-0.108060622,0,13,33,125,507,99,"R  ",0.81,0.81,32,1,1,1,0,92
2,2,94,"folder/matchedM016.png  ",1,1.261570545,1,1,2,1,1,0.921875,"Selected",-0.539267571,0,13,33,125,507,99,"R  ",0.81,0.81,32,1,1,1,0,93
2,2,95,"folder/matchedM001.png  ",1,3.50169629,1,4,2,4,1,0.921875,"Selected",1.043121191,0,13,33,125,507,99,"R  ",0.81,0.81,32,1,1,1,0,94
2,2,96,"folder/matchedM004IN.png",3,1.682489129,1,2,2,2,1,0.921875,"Selected",-0.24193746,0,13,33,125,507,99,"R  ",0.81,0.81,32,1,2,0,1,95
2,1,1,"folder/matchedM008IN.png",4,1.607614,1,1,1,1,1,0.921875,"Selected",-0.294828046,0,13,33,125,507,99,"R  ",0.81,0.81,32,1,2,0,1,0
2,1,2,"folder/matchedM016IN.png",3,1.585314219,1,2,2,2,1,0.921875,"Selected",-0.310580252,0,13,33,125,507,99,"R  ",0.81,0.81,32,1,2,0,1,1
2,1,3,"folder/matchedM016.png  ",1,2.727603825,1,4,2,4,1,0.921875,"Selected",0.496314736,0,13,33,125,507,99,"R  ",0.81,0.81,32,1,1,1,0,2
2,1,4,"folder/matchedM004SL.png",6,1.357595805,1,2,1,2,1,0.921875,"Selected",-0.471436874,0,13,33,125,507,99,"R  ",0.81,0.81,32,1,3,0,0,3
2,1,5,"folder/matchedM020SR.png",6,1.677755787,1,1,1,1,1,0.921875,"Selected",-0.245281017,0,13,33,125,507,99,"R  ",0.81,0.81,32,1,3,0,0,4
2,1,6,"folder/matchedM016SL.png",6,1.167812179,1,4,1,4,1,0.921875,"Selected",-0.605496972,0,13,33,125,507,99,"R  ",0.81,0.81,32,1,3,0,0,5
2,1,7,"folder/matchedM020IN.png",4,1.5288185,1,2,1,2,1,0.921875,"Selected",-0.350487919,0,13,33,125,507,99,"R  ",0.81,0.81,32,1,2,0,1,6
2,1,8,"folder/matchedM067.png  ",2,1.396028169,1,4,1,4,1,0.921875,"Selected",-0.444288871,0,13,33,125,507,99,"R  ",0.81,0.81,32,1,1,1,0,7
2,1,9,"folder/matchedM002.png  ",1,5.248428763,1,4,2,4,1,0.921875,"Selected",2.276984889,0,13,33,125,507,99,"R  ",0.81,0.81,32,1,1,1,0,8
2,1,10,"folder/matchedM049.png  ",2,1.878680705,1,2,1,2,1,0.921875,"Selected",-0.103350889,0,13,33,125,507,99,"R  ",0.81,0.81,32,1,1,1,0,9
2,1,11,"folder/matchedM017SR.png",6,1.875719335,1,2,1,2,1,0.921875,"Selected",-0.105442753,0,13,33,125,507,99,"R  ",0.81,0.81,32,1,3,0,0,10
2,1,12,"folder/matchedM017IN.png",3,4.73744011,1,2,2,2,1,0.921875,"Selected",1.916030731,0,13,33,125,507,99,"R  ",0.81,0.81,32,1,2,0,1,11
2,1,13,"folder/matchedM003.png  ",2,1.311021943,1,2,1,2,1,0.921875,"Selected",-0.5043359,0,13,33,125,507,99,"R  ",0.81,0.81,32,1,1,1,0,12
2,1,15,"folder/matchedM024.png  ",1,1.808255619,1,1,2,1,1,0.921875,"Selected",-0.153098036,0,13,33,125,507,99,"R  ",0.81,0.81,32,1,1,1,0,14
2,1,16,"folder/matchedM024IN.png",3,2.407192789,1,2,2,2,1,0.921875,"Selected",0.269981538,0,13,33,125,507,99,"R  ",0.81,0.81,32,1,2,0,1,15
2,1,17,"folder/matchedM003SR.png",5,6.059247066,1,3,2,3,1,0.921875,"Selected",2.849733885,0,13,33,125,507,99,"R  ",0.81,0.81,32,1,3,0,0,16
2,1,18,"folder/matchedM017.png  ",2,1.198330092,1,2,1,2,1,0.921875,"Selected",-0.583939609,0,13,33,125,507,99,"R  ",0.81,0.81,32,1,1,1,0,17
2,1,19,"folder/matchedM001SR.png",6,1.605163949,1,3,1,3,1,0.921875,"Selected",-0.296558722,0,13,33,125,507,99,"R  ",0.81,0.81,32,1,3,0,0,18
2,1,20,"folder/matchedM019IN.png",4,3.3772342,1,1,1,1,1,0.921875,"Selected",0.955203174,0,13,33,125,507,99,"R  ",0.81,0.81,32,1,2,0,1,19
2,1,21,"folder/matchedM002.png  ",2,1.74749793,1,1,1,1,1,0.921875,"Selected",-0.19601629,0,13,33,125,507,99,"R  ",0.81,0.81,32,1,1,1,0,20
2,1,22,"folder/matchedM004SL.png",5,2.795899156,1,3,2,3,1,0.921875,"Selected",0.544557458,0,13,33,125,507,99,"R  ",0.81,0.81,32,1,3,0,0,21
2,1,23,"folder/matchedM001.png  ",2,1.147340461,1,4,1,4,1,0.921875,"Selected",-0.619957864,0,13,33,125,507,99,"R  ",0.81,0.81,32,1,1,1,0,22
2,1,24,"folder/matchedM067.png  ",1,3.307168983,1,3,2,3,1,0.921875,"Selected",0.905710233,0,13,33,125,507,99,"R  ",0.81,0.81,32,1,1,1,0,23
2,1,25,"folder/matchedM024.png  ",2,1.885451052,1,4,1,4,1,0.921875,"Selected",-0.098568425,0,13,33,125,507,99,"R  ",0.81,0.81,32,1,1,1,0,24
2,1,26,"folder/matchedM072.png  ",1,2.161554525,1,2,2,2,1,0.921875,"Selected",0.096466623,0,13,33,125,507,99,"R  ",0.81,0.81,32,1,1,1,0,25
2,1,27,"folder/matchedM072SL.png",6,0.828188754,1,4,1,4,1,0.921875,"Selected",-0.845401492,0,13,33,125,507,99,"R  ",0.81,0.81,32,1,3,0,0,26
2,1,28,"folder/matchedM020.png  ",1,2.934931536,1,3,2,3,1,0.921875,"Selected",0.642767693,0,13,33,125,507,99,"R  ",0.81,0.81,32,1,1,1,0,27
2,1,29,"folder/matchedM004IN.png",4,0.707475216,1,4,1,4,1,0.921875,"Selected",-0.930671592,0,13,33,125,507,99,"R  ",0.81,0.81,32,1,2,0,1,28
2,1,30,"folder/matchedM004.png  ",2,0.929304037,1,4,1,4,1,0.921875,"Selected",-0.773975283,0,13,33,125,507,99,"R  ",0.81,0.81,32,1,1,1,0,29
2,1,31,"folder/matchedM002IN.png",3,2.876825076,1,3,2,3,1,0.921875,"Selected",0.601722226,0,13,33,125,507,99,"R  ",0.81,0.81,32,1,2,0,1,30
2,1,32,"folder/matchedM008.png  ",2,2.326035295,1,1,1,1,1,0.921875,"Selected",0.212653191,0,13,33,125,507,99,"R  ",0.81,0.81,32,1,1,1,0,31
2,1,33,"folder/matchedM072.png  ",2,1.307655779,1,1,1,1,1,0.921875,"Selected",-0.506713704,0,13,33,125,507,99,"R  ",0.81,0.81,32,1,1,1,0,32
2,1,36,"folder/matchedM016IN.png",4,0.744736254,1,4,1,4,1,0.921875,"Selected",-0.904350994,0,13,33,125,507,99,"R  ",0.81,0.81,32,1,2,0,1,35
2,1,37,"folder/matchedM019.png  ",2,1.485494216,1,1,1,1,1,0.921875,"Selected",-0.381091495,0,13,33,125,507,99,"R  ",0.81,0.81,32,1,1,1,0,36
2,1,38,"folder/matchedM072IN.png",3,3.075591172,1,2,2,2,1,0.921875,"Selected",0.742127395,0,13,33,125,507,99,"R  ",0.81,0.81,32,1,2,0,1,37
2,1,39,"folder/matchedM005SR.png",5,4.014188022,1,4,2,4,1,0.921875,"Selected",1.4051371,0,13,33,125,507,99,"R  ",0.81,0.81,32,1,3,0,0,38
2,1,40,"folder/matchedM002IN.png",4,3.368360376,1,2,1,2,1,0.921875,"Selected",0.948934848,0,13,33,125,507,99,"R  ",0.81,0.81,32,1,2,0,1,39
2,1,41,"folder/matchedM008SR.png",5,1.06789674,1,1,2,1,1,0.921875,"Selected",-0.676075629,0,13,33,125,507,99,"R  ",0.81,0.81,32,1,3,0,0,40
2,1,44,"folder/matchedM005.png  ",1,1.58684569,1,1,2,1,1,0.921875,"Selected",-0.309498446,0,13,33,125,507,99,"R  ",0.81,0.81,32,1,1,1,0,43
2,1,45,"folder/matchedM008IN.png",3,2.313291191,1,2,2,2,1,0.921875,"Selected",0.203650961,0,13,33,125,507,99,"R  ",0.81,0.81,32,1,2,0,1,44
2,1,47,"folder/matchedM021.png  ",1,1.394811418,1,2,2,2,1,0.921875,"Selected",-0.445148364,0,13,33,125,507,99,"R  ",0.81,0.81,32,1,1,1,0,46
2,1,48,"folder/matchedM019IN.png",3,1.7280629,1,1,2,1,1,0.921875,"Selected",-0.209744882,0,13,33,125,507,99,"R  ",0.81,0.81,32,1,2,0,1,47
2,1,49,"folder/matchedM024IN.png",4,1.497102103,1,3,1,3,1,0.921875,"Selected",-0.372891871,0,13,33,125,507,99,"R  ",0.81,0.81,32,1,2,0,1,48
2,1,50,"folder/matchedM006SL.png",6,1.775977813,1,1,1,1,1,0.921875,"Selected",-0.175898559,0,13,33,125,507,99,"R  ",0.81,0.81,32,1,3,0,0,49
2,1,51,"folder/matchedM021SL.png",6,1.905370112,1,4,1,4,1,0.921875,"Selected",-0.084497922,0,13,33,125,507,99,"R  ",0.81,0.81,32,1,3,0,0,50
2,1,52,"folder/matchedM001SR.png",5,4.244723259,1,2,2,2,1,0.921875,"Selected",1.56798348,0,13,33,125,507,99,"R  ",0.81,0.81,32,1,3,0,0,51
2,1,53,"folder/matchedM016.png  ",2,1.429959625,1,1,1,1,1,0.921875,"Selected",-0.420320236,0,13,33,125,507,99,"R  ",0.81,0.81,32,1,1,1,0,52
2,1,54,"folder/matchedM001.png  ",1,3.634776619,1,2,2,2,1,0.921875,"Selected",1.137126993,0,13,33,125,507,99,"R  ",0.81,0.81,32,1,1,1,0,53
2,1,55,"folder/matchedM024SR.png",5,1.611461547,1,2,2,2,1,0.921875,"Selected",-0.2921102,0,13,33,125,507,99,"R  ",0.81,0.81,32,1,3,0,0,54
2,1,56,"folder/matchedM004IN.png",3,1.771330632,1,2,2,2,1,0.921875,"Selected",-0.179181253,0,13,33,125,507,99,"R  ",0.81,0.81,32,1,2,0,1,55
2,1,57,"folder/matchedM005IN.png",4,1.733902618,1,3,1,3,1,0.921875,"Selected",-0.205619799,0,13,33,125,507,99,"R  ",0.81,0.81,32,1,2,0,1,56
2,1,58,"folder/matchedM006IN.png",3,0.833812871,1,1,2,1,1,0.921875,"Selected",-0.841428706,0,13,33,125,507,99,"R  ",0.81,0.81,32,1,2,0,1,57
2,1,60,"folder/matchedM049SL.png",5,2.314900145,1,3,2,3,1,0.921875,"Selected",0.204787501,0,13,33,125,507,99,"R  ",0.81,0.81,32,1,3,0,0,59
2,1,61,"folder/matchedM008SR.png",6,2.283867796,1,2,1,2,1,0.921875,"Selected",0.182866749,0,13,33,125,507,99,"R  ",0.81,0.81,32,1,3,0,0,60
2,1,63,"folder/matchedM021IN.png",3,2.1566262,1,2,2,2,1,0.921875,"Selected",0.092985333,0,13,33,125,507,99,"R  ",0.81,0.81,32,1,2,0,1,62
2,1,64,"folder/matchedM020SR.png",5,5.930438752,1,4,2,4,1,0.921875,"Selected",2.758745765,0,13,33,125,507,99,"R  ",0.81,0.81,32,1,3,0,0,63
2,1,65,"folder/matchedM003.png  ",1,1.969547035,1,2,2,2,1,0.921875,"Selected",-0.039164376,0,13,33,125,507,99,"R  ",0.81,0.81,32,1,1,1,0,64
2,1,66,"folder/matchedM020IN.png",3,5.247800632,1,3,2,3,1,0.921875,"Selected",2.276541188,0,13,33,125,507,99,"R  ",0.81,0.81,32,1,2,0,1,65
2,1,67,"folder/matchedM006.png  ",2,1.135013117,1,3,1,3,1,0.921875,"Selected",-0.628665701,0,13,33,125,507,99,"R  ",0.81,0.81,32,1,1,1,0,66
2,1,68,"folder/matchedM003SR.png",6,1.104020805,1,4,1,4,1,0.921875,"Selected",-0.650558172,0,13,33,125,507,99,"R  ",0.81,0.81,32,1,3,0,0,67
2,1,69,"folder/matchedM004.png  ",1,1.635872553,1,2,2,2,1,0.921875,"Selected",-0.274866659,0,13,33,125,507,99,"R  ",0.81,0.81,32,1,1,1,0,68
2,1,70,"folder/matchedM072IN.png",4,2.104703079,1,2,1,2,1,0.921875,"Selected",0.056307677,0,13,33,125,507,99,"R  ",0.81,0.81,32,1,2,0,1,69
2,1,71,"folder/matchedM021SL.png",5,3.985891424,1,4,2,4,1,0.921875,"Selected",1.385148839,0,13,33,125,507,99,"R  ",0.81,0.81,32,1,3,0,0,70
2,1,72,"folder/matchedM017IN.png",4,2.60588128,1,2,1,2,1,0.921875,"Selected",0.410331889,0,13,33,125,507,99,"R  ",0.81,0.81,32,1,2,0,1,71
2,1,73,"folder/matchedM002SL.png",6,1.055822906,1,2,1,2,1,0.921875,"Selected",-0.684604392,0,13,33,125,507,99,"R  ",0.81,0.81,32,1,3,0,0,72
2,1,74,"folder/matchedM017.png  ",1,4.081956669,1,3,2,3,1,0.921875,"Selected",1.453007781,0,13,33,125,507,99,"R  ",0.81,0.81,32,1,1,1,0,73
2,1,75,"folder/matchedM006.png  ",1,3.440276606,1,3,2,3,1,0.921875,"Selected",0.999735315,0,13,33,125,507,99,"R  ",0.81,0.81,32,1,1,1,0,74
2,1,76,"folder/matchedM001IN.png",3,2.256246573,1,2,2,2,1,0.921875,"Selected",0.163355561,0,13,33,125,507,99,"R  ",0.81,0.81,32,1,2,0,1,75
2,1,77,"folder/matchedM016SL.png",5,2.924616039,1,1,2,1,1,0.921875,"Selected",0.635480992,0,13,33,125,507,99,"R  ",0.81,0.81,32,1,3,0,0,76
2,1,78,"folder/matchedM067SR.png",5,5.546517027,1,4,2,4,1,0.921875,"Selected",2.48754964,0,13,33,125,507,99,"R  ",0.81,0.81,32,1,3,0,0,77
2,1,79,"folder/matchedM021.png  ",2,1.182400702,1,3,1,3,1,0.921875,"Selected",-0.595191874,0,13,33,125,507,99,"R  ",0.81,0.81,32,1,1,1,0,78
2,1,80,"folder/matchedM067IN.png",4,2.273261906,1,4,1,4,1,0.921875,"Selected",0.175374919,0,13,33,125,507,99,"R  ",0.81,0.81,32,1,2,0,1,79
2,1,84,"folder/matchedM024SR.png",6,2.243623885,1,1,1,1,1,0.921875,"Selected",0.154439098,0,13,33,125,507,99,"R  ",0.81,0.81,32,1,3,0,0,83
2,1,86,"folder/matchedM008.png  ",1,1.785964275,1,1,2,1,1,0.921875,"Selected",-0.168844283,0,13,33,125,507,99,"R  ",0.81,0.81,32,1,1,1,0,85
2,1,87,"folder/matchedM049SL.png",6,1.314959941,1,3,1,3,1,0.921875,"Selected",-0.501554161,0,13,33,125,507,99,"R  ",0.81,0.81,32,1,3,0,0,86
2,1,88,"folder/matchedM006SL.png",5,2.115843766,1,1,2,1,1,0.921875,"Selected",0.064177279,0,13,33,125,507,99,"R  ",0.81,0.81,32,1,3,0,0,87
2,1,89,"folder/matchedM049.png  ",1,1.294313326,1,1,2,1,1,0.921875,"Selected",-0.516138598,0,13,33,125,507,99,"R  ",0.81,0.81,32,1,1,1,0,88
2,1,90,"folder/matchedM005.png  ",2,0.985305779,1,4,1,4,1,0.921875,"Selected",-0.734416555,0,13,33,125,507,99,"R  ",0.81,0.81,32,1,1,1,0,89
2,1,92,"folder/matchedM019.png  ",1,2.625991076,1,4,2,4,1,0.921875,"Selected",0.424537126,0,13,33,125,507,99,"R  ",0.81,0.81,32,1,1,1,0,91
2,1,93,"folder/matchedM003IN.png",4,2.506466966,1,1,1,1,1,0.921875,"Selected",0.340107218,0,13,33,125,507,99,"R  ",0.81,0.81,32,1,2,0,1,92
2,1,94,"folder/matchedM067SR.png",6,2.276686791,1,3,1,3,1,0.921875,"Selected",0.177794203,0,13,33,125,507,99,"R  ",0.81,0.81,32,1,3,0,0,93
2,1,95,"folder/matchedM067IN.png",3,1.73504532,1,2,2,2,1,0.921875,"Selected",-0.204812613,0,13,33,125,507,99,"R  ",0.81,0.81,32,1,2,0,1,94
2,1,96,"folder/matchedM020.png  ",2,1.3268053,1,1,1,1,1,0.921875,"Selected",-0.493186791,0,13,33,125,507,99,"R  ",0.81,0.81,32,1,1,1,0,95
3,2,1,"folder/matchedM020IN.png",4,2.241401837,1,4,1,4,1,0.994791667,"Selected",-0.25929529,0,59,3,77,455,99,"L  ",0.89,1.1,24,1,2,0,1,0
3,2,2,"folder/matchedM067SR.png",6,1.025122325,1,2,1,2,1,0.994791667,"Selected",-0.965531096,0,59,3,77,455,99,"L  ",0.89,1.1,24,1,3,0,0,1
3,2,3,"folder/matchedM005SR.png",6,1.174575025,1,4,1,4,1,0.994791667,"Selected",-0.878751004,0,59,3,77,455,99,"L  ",0.89,1.1,24,1,3,0,0,2
3,2,4,"folder/matchedM020SR.png",5,1.577406671,1,2,2,2,1,0.994791667,"Selected",-0.64484578,0,59,3,77,455,99,"L  ",0.89,1.1,24,1,3,0,0,3
3,2,5,"folder/matchedM049SL.png",6,1.705137884,1,1,1,1,1,0.994791667,"Selected",-0.570678325,0,59,3,77,455,99,"L  ",0.89,1.1,24,1,3,0,0,4
3,2,6,"folder/matchedM001SR.png",6,4.677138015,1,4,1,4,1,0.994791667,"Selected",1.155021144,0,59,3,77,455,99,"L  ",0.89,1.1,24,1,3,0,0,5
3,2,7,"folder/matchedM017SR.png",5,2.034932691,1,2,2,2,1,0.994791667,"Selected",-0.379182127,0,59,3,77,455,99,"L  ",0.89,1.1,24,1,3,0,0,6
3,2,8,"folder/matchedM067IN.png",4,2.144794288,1,1,1,1,1,0.994791667,"Selected",-0.31539071,0,59,3,77,455,99,"L  ",0.89,1.1,24,1,2,0,1,7
3,2,9,"folder/matchedM008IN.png",3,1.216822065,1,1,2,1,1,0.994791667,"Selected",-0.854220152,0,59,3,77,455,99,"L  ",0.89,1.1,24,1,2,0,1,8
3,2,10,"folder/matchedM004SL.png",6,0.876087189,1,2,1,2,1,0.994791667,"Selected",-1.052068728,0,59,3,77,455,99,"L  ",0.89,1.1,24,1,3,0,0,9
3,2,11,"folder/matchedM001IN.png",4,1.643303233,1,2,1,2,1,0.994791667,"Selected",-0.606582773,0,59,3,77,455,99,"L  ",0.89,1.1,24,1,2,0,1,10
3,2,12,"folder/matchedM019SL.png",5,1.78434437,1,4,2,4,1,0.994791667,"Selected",-0.524686876,0,59,3,77,455,99,"L  ",0.89,1.1,24,1,3,0,0,11
3,2,13,"folder/matchedM006SL.png",6,1.343801915,1,2,1,2,1,0.994791667,"Selected",-0.780488978,0,59,3,77,455,99,"L  ",0.89,1.1,24,1,3,0,0,12
3,2,14,"folder/matchedM024.png  ",1,1.313679315,1,4,2,4,1,0.994791667,"Selected",-0.797979743,0,59,3,77,455,99,"L  ",0.89,1.1,24,1,1,1,0,13
3,2,15,"folder/matchedM008SR.png",5,1.054480611,1,3,2,3,1,0.994791667,"Selected",-0.948484132,0,59,3,77,455,99,"L  ",0.89,1.1,24,1,3,0,0,14
3,2,16,"folder/matchedM008SR.png",6,1.63459434,1,3,1,3,1,0.994791667,"Selected",-0.611639613,0,59,3,77,455,99,"L  ",0.89,1.1,24,1,3,0,0,15
3,2,17,"folder/matchedM072IN.png",3,1.346844014,1,1,2,1,1,0.994791667,"Selected",-0.778722575,0,59,3,77,455,99,"L  ",0.89,1.1,24,1,2,0,1,16
3,2,18,"folder/matchedM008.png  ",1,2.114906044,1,4,2,4,1,0.994791667,"Selected",-0.332745396,0,59,3,77,455,99,"L  ",0.89,1.1,24,1,1,1,0,17
3,2,19,"folder/matchedM020.png  ",2,1.294112598,1,2,1,2,1,0.994791667,"Selected",-0.809341207,0,59,3,77,455,99,"L  ",0.89,1.1,24,1,1,1,0,18
3,2,20,"folder/matchedM016IN.png",3,1.504959336,1,1,2,1,1,0.994791667,"Selected",-0.68691251,0,59,3,77,455,99,"L  ",0.89,1.1,24,1,2,0,1,19
3,2,21,"folder/matchedM021SL.png",6,1.814297091,1,1,1,1,1,0.994791667,"Selected",-0.507294752,0,59,3,77,455,99,"L  ",0.89,1.1,24,1,3,0,0,20
3,2,22,"folder/matchedM004.png  ",1,1.015580111,1,2,2,2,1,0.994791667,"Selected",-0.971071807,0,59,3,77,455,99,"L  ",0.89,1.1,24,1,1,1,0,21
3,2,23,"folder/matchedM001IN.png",3,1.365214277,1,4,2,4,1,0.994791667,"Selected",-0.768055835,0,59,3,77,455,99,"L  ",0.89,1.1,24,1,2,0,1,22
3,2,24,"folder/matchedM002IN.png",4,1.356440512,1,1,1,1,1,0.994791667,"Selected",-0.773150344,0,59,3,77,455,99,"L  ",0.89,1.1,24,1,2,0,1,23
3,2,25,"folder/matchedM005IN.png",3,1.243853762,1,3,2,3,1,0.994791667,"Selected",-0.838524128,0,59,3,77,455,99,"L  ",0.89,1.1,24,1,2,0,1,24
3,2,26,"folder/matchedM003.png  ",1,1.783819625,1,4,2,4,1,0.994791667,"Selected",-0.524991571,0,59,3,77,455,99,"L  ",0.89,1.1,24,1,1,1,0,25
3,2,27,"folder/matchedM006.png  ",2,2.631204632,1,4,1,4,1,0.994791667,"Selected",-0.032955301,0,59,3,77,455,99,"L  ",0.89,1.1,24,1,1,1,0,26
3,2,28,"folder/matchedM003SR.png",5,2.475342275,1,2,2,2,1,0.994791667,"Selected",-0.123457178,0,59,3,77,455,99,"L  ",0.89,1.1,24,1,3,0,0,27
3,2,29,"folder/matchedM016.png  ",2,1.244158249,1,4,1,4,1,0.994791667,"Selected",-0.838347327,0,59,3,77,455,99,"L  ",0.89,1.1,24,1,1,1,0,28
3,2,30,"folder/matchedM072SL.png",5,1.145138552,1,2,2,2,1,0.994791667,"Selected",-0.895843367,0,59,3,77,455,99,"L  ",0.89,1.1,24,1,3,0,0,29
3,2,31,"folder/matchedM049IN.png",4,3.604519369,1,1,1,1,1,0.994791667,"Selected",0.532202387,0,59,3,77,455,99,"L  ",0.89,1.1,24,1,2,0,1,30
3,2,32,"folder/matchedM049SL.png",5,2.943046685,1,4,2,4,1,0.994791667,"Selected",0.148116583,0,59,3,77,455,99,"L  ",0.89,1.1,24,1,3,0,0,31
3,2,33,"folder/matchedM004IN.png",3,1.635150377,1,1,2,1,1,0.994791667,"Selected",-0.611316749,0,59,3,77,455,99,"L  ",0.89,1.1,24,1,2,0,1,32
3,2,34,"folder/matchedM019.png  ",1,2.94289687,1,3,2,3,1,0.994791667,"Selected",0.148029593,0,59,3,77,455,99,"L  ",0.89,1.1,24,1,1,1,0,33
3,2,35,"folder/matchedM002SL.png",6,1.825723644,1,2,1,2,1,0.994791667,"Selected",-0.500659895,0,59,3,77,455,99,"L  ",0.89,1.1,24,1,3,0,0,34
3,2,36,"folder/matchedM021IN.png",3,4.27274784,1,3,2,3,1,0.994791667,"Selected",0.920210955,0,59,3,77,455,99,"L  ",0.89,1.1,24,1,2,0,1,35
3,2,37,"folder/matchedM016SL.png",6,2.782651059,1,2,1,2,1,0.994791667,"Selected",0.054982453,0,59,3,77,455,99,"L  ",0.89,1.1,24,1,3,0,0,36
3,2,38,"folder/matchedM067IN.png",3,1.544075842,1,3,2,3,1,0.994791667,"Selected",-0.664199411,0,59,3,77,455,99,"L  ",0.89,1.1,24,1,2,0,1,37
3,2,39,"folder/matchedM008.png  ",2,1.404062762,1,1,1,1,1,0.994791667,"Selected",-0.745498363,0,59,3,77,455,99,"L  ",0.89,1.1,24,1,1,1,0,38
3,2,40,"folder/matchedM049.png  ",2,1.786911532,1,4,1,4,1,0.994791667,"Selected",-0.523196247,0,59,3,77,455,99,"L  ",0.89,1.1,24,1,1,1,0,39
3,2,41,"folder/matchedM001.png  ",1,1.484940912,1,1,2,1,1,0.994791667,"Selected",-0.698536259,0,59,3,77,455,99,"L  ",0.89,1.1,24,1,1,1,0,40
3,2,42,"folder/matchedM017IN.png",3,1.914366833,1,4,2,4,1,0.994791667,"Selected",-0.449189001,0,59,3,77,455,99,"L  ",0.89,1.1,24,1,2,0,1,41
3,2,43,"folder/matchedM008IN.png",4,2.233606946,1,4,1,4,1,0.994791667,"Selected",-0.263821414,0,59,3,77,455,99,"L  ",0.89,1.1,24,1,2,0,1,42
3,2,44,"folder/matchedM016SL.png",5,1.485582854,1,4,2,4,1,0.994791667,"Selected",-0.698163513,0,59,3,77,455,99,"L  ",0.89,1.1,24,1,3,0,0,43
3,2,45,"folder/matchedM067.png  ",1,1.343850234,1,4,2,4,1,0.994791667,"Selected",-0.780460921,0,59,3,77,455,99,"L  ",0.89,1.1,24,1,1,1,0,44
3,2,46,"folder/matchedM021.png  ",2,1.783964906,1,4,1,4,1,0.994791667,"Selected",-0.524907213,0,59,3,77,455,99,"L  ",0.89,1.1,24,1,1,1,0,45
3,2,47,"folder/matchedM049IN.png",3,2.243626084,1,3,2,3,1,0.994791667,"Selected",-0.258003775,0,59,3,77,455,99,"L  ",0.89,1.1,24,1,2,0,1,46
3,2,48,"folder/matchedM016IN.png",4,2.525534818,1,4,1,4,1,0.994791667,"Selected",-0.094312749,0,59,3,77,455,99,"L  ",0.89,1.1,24,1,2,0,1,47
3,2,49,"folder/matchedM021IN.png",4,5.384819756,1,2,1,2,1,0.994791667,"Selected",1.565938354,0,59,3,77,455,99,"L  ",0.89,1.1,24,1,2,0,1,48
3,2,50,"folder/matchedM004SL.png",5,1.50272963,1,4,2,4,1,0.994791667,"Selected",-0.688207194,0,59,3,77,455,99,"L  ",0.89,1.1,24,1,3,0,0,49
3,2,51,"folder/matchedM072.png  ",2,1.129736985,1,2,1,2,1,0.994791667,"Selected",-0.904786326,0,59,3,77,455,99,"L  ",0.89,1.1,24,1,1,1,0,50
3,2,52,"folder/matchedM003.png  ",2,2.851728117,1,3,1,3,1,0.994791667,"Selected",0.095092223,0,59,3,77,455,99,"L  ",0.89,1.1,24,1,1,1,0,51
3,2,53,"folder/matchedM005.png  ",1,1.053892551,1,4,2,4,1,0.994791667,"Selected",-0.948825591,0,59,3,77,455,99,"L  ",0.89,1.1,24,1,1,1,0,52
3,2,54,"folder/matchedM019IN.png",4,6.211002983,1,3,1,3,1,0.994791667,"Selected",2.045663755,0,59,3,77,455,99,"L  ",0.89,1.1,24,1,2,0,1,53
3,2,55,"folder/matchedM024SR.png",6,7.822755498,1,2,1,2,1,0.994791667,"Selected",2.98153197,0,59,3,77,455,99,"L  ",0.89,1.1,24,1,3,0,0,54
3,2,56,"folder/matchedM002SL.png",5,2.064492247,1,1,2,1,1,0.994791667,"Selected",-0.362018296,0,59,3,77,455,99,"L  ",0.89,1.1,24,1,3,0,0,55
3,2,57,"folder/matchedM072.png  ",1,1.683272413,1,4,2,4,1,0.994791667,"Selected",-0.583374566,0,59,3,77,455,99,"L  ",0.89,1.1,24,1,1,1,0,56
3,2,58,"folder/matchedM067.png  ",2,1.503672673,1,4,1,4,1,0.994791667,"Selected",-0.687659614,0,59,3,77,455,99,"L  ",0.89,1.1,24,1,1,1,0,57
3,2,59,"folder/matchedM004IN.png",4,1.863180196,1,3,1,3,1,0.994791667,"Selected",-0.478910652,0,59,3,77,455,99,"L  ",0.89,1.1,24,1,2,0,1,58
3,2,60,"folder/matchedM002.png  ",1,1.68474003,1,2,2,2,1,0.994791667,"Selected",-0.58252239,0,59,3,77,455,99,"L  ",0.89,1.1,24,1,1,1,0,59
3,2,61,"folder/matchedM072IN.png",4,2.860799759,1,3,1,3,1,0.994791667,"Selected",0.100359695,0,59,3,77,455,99,"L  ",0.89,1.1,24,1,2,0,1,60
3,2,62,"folder/matchedM005SR.png",5,1.373536007,1,2,2,2,1,0.994791667,"Selected",-0.763223802,0,59,3,77,455,99,"L  ",0.89,1.1,24,1,3,0,0,61
3,2,63,"folder/matchedM003IN.png",3,1.874176373,1,3,2,3,1,0.994791667,"Selected",-0.472525694,0,59,3,77,455,99,"L  ",0.89,1.1,24,1,2,0,1,62
3,2,65,"folder/matchedM005IN.png",4,1.551621539,1,4,1,4,1,0.994791667,"Selected",-0.659817982,0,59,3,77,455,99,"L  ",0.89,1.1,24,1,2,0,1,64
3,2,66,"folder/matchedM072SL.png",6,2.542413403,1,3,1,3,1,0.994791667,"Selected",-0.084512155,0,59,3,77,455,99,"L  ",0.89,1.1,24,1,3,0,0,65
3,2,67,"folder/matchedM002.png  ",2,1.461905242,1,1,1,1,1,0.994791667,"Selected",-0.711911979,0,59,3,77,455,99,"L  ",0.89,1.1,24,1,1,1,0,66
3,2,68,"folder/matchedM006SL.png",5,2.141325561,1,4,2,4,1,0.994791667,"Selected",-0.317404835,0,59,3,77,455,99,"L  ",0.89,1.1,24,1,3,0,0,67
3,2,69,"folder/matchedM020SR.png",6,3.70411128,1,3,1,3,1,0.994791667,"Selected",0.590030684,0,59,3,77,455,99,"L  ",0.89,1.1,24,1,3,0,0,68
3,2,70,"folder/matchedM017.png  ",2,1.502486249,1,4,1,4,1,0.994791667,"Selected",-0.688348514,0,59,3,77,455,99,"L  ",0.89,1.1,24,1,1,1,0,69
3,2,71,"folder/matchedM067SR.png",5,1.004100671,1,2,2,2,1,0.994791667,"Selected",-0.977737373,0,59,3,77,455,99,"L  ",0.89,1.1,24,1,3,0,0,70
3,2,72,"folder/matchedM024IN.png",4,4.470547254,1,2,1,2,1,0.994791667,"Selected",1.03506369,0,59,3,77,455,99,"L  ",0.89,1.1,24,1,2,0,1,71
3,2,73,"folder/matchedM003IN.png",4,2.150254366,1,2,1,2,1,0.994791667,"Selected",-0.312220302,0,59,3,77,455,99,"L  ",0.89,1.1,24,1,2,0,1,72
3,2,74,"folder/matchedM024SR.png",5,1.004139918,1,2,2,2,1,0.994791667,"Selected",-0.977714584,0,59,3,77,455,99,"L  ",0.89,1.1,24,1,3,0,0,73
3,2,75,"folder/matchedM001.png  ",2,2.271342649,1,3,1,3,1,0.994791667,"Selected",-0.241910081,0,59,3,77,455,99,"L  ",0.89,1.1,24,1,1,1,0,74
3,2,76,"folder/matchedM017.png  ",1,1.854000491,1,4,2,4,1,0.994791667,"Selected",-0.484240872,0,59,3,77,455,99,"L  ",0.89,1.1,24,1,1,1,0,75
3,2,77,"folder/matchedM020.png  ",1,1.154641834,1,2,2,2,1,0.994791667,"Selected",-0.890325262,0,59,3,77,455,99,"L  ",0.89,1.1,24,1,1,1,0,76
3,2,78,"folder/matchedM021SL.png",5,2.302630594,1,1,2,1,1,0.994791667,"Selected",-0.223742656,0,59,3,77,455,99,"L  ",0.89,1.1,24,1,3,0,0,77
3,2,79,"folder/matchedM020IN.png",3,1.503784826,1,2,2,2,1,0.994791667,"Selected",-0.687594492,0,59,3,77,455,99,"L  ",0.89,1.1,24,1,2,0,1,78
3,2,80,"folder/matchedM006IN.png",3,1.154468515,1,3,2,3,1,0.994791667,"Selected",-0.8904259,0,59,3,77,455,99,"L  ",0.89,1.1,24,1,2,0,1,79
3,2,81,"folder/matchedM049.png  ",1,1.411429344,1,4,2,4,1,0.994791667,"Selected",-0.741220938,0,59,3,77,455,99,"L  ",0.89,1.1,24,1,1,1,0,80
3,2,82,"folder/matchedM024.png  ",2,1.715120418,1,2,1,2,1,0.994791667,"Selected",-0.564881941,0,59,3,77,455,99,"L  ",0.89,1.1,24,1,1,1,0,81
3,2,83,"folder/matchedM019SL.png",6,4.143616298,1,4,1,4,1,0.994791667,"Selected",0.845230396,0,59,3,77,455,99,"L  ",0.89,1.1,24,1,3,0,0,82
3,2,84,"folder/matchedM017IN.png",4,1.501272415,1,1,1,1,1,0.994791667,"Selected",-0.68905333,0,59,3,77,455,99,"L  ",0.89,1.1,24,1,2,0,1,83
3,2,85,"folder/matchedM005.png  ",2,1.489506714,1,3,1,3,1,0.994791667,"Selected",-0.695885114,0,59,3,77,455,99,"L  ",0.89,1.1,24,1,1,1,0,84
3,2,86,"folder/matchedM006IN.png",4,1.89343863,1,4,1,4,1,0.994791667,"Selected",-0.461341016,0,59,3,77,455,99,"L  ",0.89,1.1,24,1,2,0,1,85
3,2,88,"folder/matchedM016.png  ",1,1.148748695,1,1,2,1,1,0.994791667,"Selected",-0.893747128,0,59,3,77,455,99,"L  ",0.89,1.1,24,1,1,1,0,87
3,2,89,"folder/matchedM002IN.png",3,2.010558919,1,3,2,3,1,0.994791667,"Selected",-0.39333482,0,59,3,77,455,99,"L  ",0.89,1.1,24,1,2,0,1,88
3,2,90,"folder/matchedM019.png  ",2,1.415157453,1,2,1,2,1,0.994791667,"Selected",-0.739056203,0,59,3,77,455,99,"L  ",0.89,1.1,24,1,1,1,0,89
3,2,91,"folder/matchedM021.png  ",1,2.428789007,1,1,2,1,1,0.994791667,"Selected",-0.150488452,0,59,3,77,455,99,"L  ",0.89,1.1,24,1,1,1,0,90
3,2,92,"folder/matchedM019IN.png",3,1.313019485,1,2,2,2,1,0.994791667,"Selected",-0.798362874,0,59,3,77,455,99,"L  ",0.89,1.1,24,1,2,0,1,91
3,2,93,"folder/matchedM006.png  ",1,1.163425312,1,1,2,1,1,0.994791667,"Selected",-0.885225113,0,59,3,77,455,99,"L  ",0.89,1.1,24,1,1,1,0,92
3,2,94,"folder/matchedM004.png  ",2,1.092903659,1,2,1,2,1,0.994791667,"Selected",-0.926173691,0,59,3,77,455,99,"L  ",0.89,1.1,24,1,1,1,0,93
3,2,95,"folder/matchedM017SR.png",6,1.644635768,1,2,1,2,1,0.994791667,"Selected",-0.605809032,0,59,3,77,455,99,"L  ",0.89,1.1,24,1,3,0,0,94
3,2,96,"folder/matchedM024IN.png",3,1.895362413,1,1,2,1,1,0.994791667,"Selected",-0.460223966,0,59,3,77,455,99,"L  ",0.89,1.1,24,1,2,0,1,95
3,1,1,"folder/matchedM019.png  ",1,2.339933541,1,1,2,1,1,0.994791667,"Selected",-0.202082604,0,59,3,77,455,99,"L  ",0.89,1.1,24,1,1,1,0,0
3,1,2,"folder/matchedM067IN.png",4,2.085927864,1,4,1,4,1,0.994791667,"Selected",-0.34957165,0,59,3,77,455,99,"L  ",0.89,1.1,24,1,2,0,1,1
3,1,3,"folder/matchedM049.png  ",2,1.706156783,1,3,1,3,1,0.994791667,"Selected",-0.570086698,0,59,3,77,455,99,"L  ",0.89,1.1,24,1,1,1,0,2
3,1,4,"folder/matchedM001SR.png",6,4.065907231,1,2,1,2,1,0.994791667,"Selected",0.800108427,0,59,3,77,455,99,"L  ",0.89,1.1,24,1,3,0,0,3
3,1,5,"folder/matchedM004IN.png",3,1.565252656,1,3,2,3,1,0.994791667,"Selected",-0.651903039,0,59,3,77,455,99,"L  ",0.89,1.1,24,1,2,0,1,4
3,1,6,"folder/matchedM021IN.png",4,4.984963518,1,3,1,3,1,0.994791667,"Selected",1.333760808,0,59,3,77,455,99,"L  ",0.89,1.1,24,1,2,0,1,5
3,1,7,"folder/matchedM008SR.png",5,2.957331139,1,4,2,4,1,0.994791667,"Selected",0.156410888,0,59,3,77,455,99,"L  ",0.89,1.1,24,1,3,0,0,6
3,1,8,"folder/matchedM008IN.png",3,3.965151377,1,4,2,4,1,0.994791667,"Selected",0.741604284,0,59,3,77,455,99,"L  ",0.89,1.1,24,1,2,0,1,7
3,1,9,"folder/matchedM003SR.png",6,7.284775768,1,4,1,4,1,0.994791667,"Selected",2.669152666,0,59,3,77,455,99,"L  ",0.89,1.1,24,1,3,0,0,8
3,1,10,"folder/matchedM024.png  ",2,3.272995676,1,2,1,2,1,0.994791667,"Selected",0.339702307,0,59,3,77,455,99,"L  ",0.89,1.1,24,1,1,1,0,9
3,1,11,"folder/matchedM006IN.png",3,1.405964379,1,2,2,2,1,0.994791667,"Selected",-0.744394184,0,59,3,77,455,99,"L  ",0.89,1.1,24,1,2,0,1,10
3,1,12,"folder/matchedM049SL.png",6,5.714099485,1,4,1,4,1,0.994791667,"Selected",1.75713547,0,59,3,77,455,99,"L  ",0.89,1.1,24,1,3,0,0,11
3,1,13,"folder/matchedM021IN.png",3,5.603501766,1,2,2,2,1,0.994791667,"Selected",1.692916622,0,59,3,77,455,99,"L  ",0.89,1.1,24,1,2,0,1,12
3,1,14,"folder/matchedM067IN.png",3,3.462272933,1,1,2,1,1,0.994791667,"Selected",0.44960663,0,59,3,77,455,99,"L  ",0.89,1.1,24,1,2,0,1,13
3,1,15,"folder/matchedM004.png  ",2,3.375194914,1,3,1,3,1,0.994791667,"Selected",0.399044556,0,59,3,77,455,99,"L  ",0.89,1.1,24,1,1,1,0,14
3,1,16,"folder/matchedM002SL.png",6,6.236387538,1,1,1,1,1,0.994791667,"Selected",2.060403362,0,59,3,77,455,99,"L  ",0.89,1.1,24,1,3,0,0,15
3,1,17,"folder/matchedM049SL.png",5,5.933520493,1,2,2,2,1,0.994791667,"Selected",1.884542838,0,59,3,77,455,99,"L  ",0.89,1.1,24,1,3,0,0,16
3,1,18,"folder/matchedM005.png  ",1,2.404727739,1,1,2,1,1,0.994791667,"Selected",-0.164459688,0,59,3,77,455,99,"L  ",0.89,1.1,24,1,1,1,0,17
3,1,19,"folder/matchedM072SL.png",6,7.225721751,1,4,1,4,1,0.994791667,"Selected",2.6348628,0,59,3,77,455,99,"L  ",0.89,1.1,24,1,3,0,0,18
3,1,20,"folder/matchedM016IN.png",4,1.984455166,1,1,1,1,1,0.994791667,"Selected",-0.408492031,0,59,3,77,455,99,"L  ",0.89,1.1,24,1,2,0,1,19
3,1,21,"folder/matchedM016.png  ",2,2.768008882,1,2,1,2,1,0.994791667,"Selected",0.046480436,0,59,3,77,455,99,"L  ",0.89,1.1,24,1,1,1,0,20
3,1,22,"folder/matchedM017SR.png",6,4.356903628,1,1,1,1,1,0.994791667,"Selected",0.969076229,0,59,3,77,455,99,"L  ",0.89,1.1,24,1,3,0,0,21
3,1,23,"folder/matchedM020IN.png",4,2.024364447,1,1,1,1,1,0.994791667,"Selected",-0.385318605,0,59,3,77,455,99,"L  ",0.89,1.1,24,1,2,0,1,22
3,1,24,"folder/matchedM049.png  ",1,3.483342989,1,3,2,3,1,0.994791667,"Selected",0.461841012,0,59,3,77,455,99,"L  ",0.89,1.1,24,1,1,1,0,23
3,1,25,"folder/matchedM005IN.png",3,1.647584747,1,1,2,1,1,0.994791667,"Selected",-0.6040967,0,59,3,77,455,99,"L  ",0.89,1.1,24,1,2,0,1,24
3,1,26,"folder/matchedM021SL.png",6,3.585650264,1,2,1,2,1,0.994791667,"Selected",0.521245993,0,59,3,77,455,99,"L  ",0.89,1.1,24,1,3,0,0,25
3,1,27,"folder/matchedM008SR.png",6,1.315559542,1,4,1,4,1,0.994791667,"Selected",-0.796887984,0,59,3,77,455,99,"L  ",0.89,1.1,24,1,3,0,0,26
3,1,28,"folder/matchedM072.png  ",1,1.93493711,1,4,2,4,1,0.994791667,"Selected",-0.437244817,0,59,3,77,455,99,"L  ",0.89,1.1,24,1,1,1,0,27
3,1,29,"folder/matchedM006.png  ",2,2.994575974,1,2,1,2,1,0.994791667,"Selected",0.178037196,0,59,3,77,455,99,"L  ",0.89,1.1,24,1,1,1,0,28
3,1,30,"folder/matchedM024.png  ",1,2.416397576,1,4,2,4,1,0.994791667,"Selected",-0.157683567,0,59,3,77,455,99,"L  ",0.89,1.1,24,1,1,1,0,29
3,1,32,"folder/matchedM004SL.png",5,3.970518452,1,1,2,1,1,0.994791667,"Selected",0.744720689,0,59,3,77,455,99,"L  ",0.89,1.1,24,1,3,0,0,31
3,1,33,"folder/matchedM006SL.png",5,2.537386913,1,3,2,3,1,0.994791667,"Selected",-0.0874308,0,59,3,77,455,99,"L  ",0.89,1.1,24,1,3,0,0,32
3,1,34,"folder/matchedM024SR.png",6,2.573210863,1,1,1,1,1,0.994791667,"Selected",-0.066629532,0,59,3,77,455,99,"L  ",0.89,1.1,24,1,3,0,0,33
3,1,35,"folder/matchedM003.png  ",1,2.643636427,1,2,2,2,1,0.994791667,"Selected",-0.025736748,0,59,3,77,455,99,"L  ",0.89,1.1,24,1,1,1,0,34
3,1,36,"folder/matchedM072IN.png",4,4.752543765,1,4,1,4,1,0.994791667,"Selected",1.198805685,0,59,3,77,455,99,"L  ",0.89,1.1,24,1,2,0,1,35
3,1,37,"folder/matchedM004.png  ",1,1.302777547,1,1,2,1,1,0.994791667,"Selected",-0.804309882,0,59,3,77,455,99,"L  ",0.89,1.1,24,1,1,1,0,36
3,1,38,"folder/matchedM005IN.png",4,1.447159799,1,3,1,3,1,0.994791667,"Selected",-0.720473958,0,59,3,77,455,99,"L  ",0.89,1.1,24,1,2,0,1,37
3,1,39,"folder/matchedM016SL.png",6,4.591451054,1,2,1,2,1,0.994791667,"Selected",1.105266791,0,59,3,77,455,99,"L  ",0.89,1.1,24,1,3,0,0,38
3,1,41,"folder/matchedM006IN.png",4,4.246606437,1,2,1,2,1,0.994791667,"Selected",0.905031883,0,59,3,77,455,99,"L  ",0.89,1.1,24,1,2,0,1,40
3,1,42,"folder/matchedM017.png  ",1,2.29310208,1,1,2,1,1,0.994791667,"Selected",-0.229275412,0,59,3,77,455,99,"L  ",0.89,1.1,24,1,1,1,0,41
3,1,43,"folder/matchedM002IN.png",4,2.114311499,1,3,1,3,1,0.994791667,"Selected",-0.33309062,0,59,3,77,455,99,"L  ",0.89,1.1,24,1,2,0,1,42
3,1,44,"folder/matchedM067.png  ",1,1.415398624,1,4,2,4,1,0.994791667,"Selected",-0.738916166,0,59,3,77,455,99,"L  ",0.89,1.1,24,1,1,1,0,43
3,1,45,"folder/matchedM024IN.png",3,1.275210124,1,2,2,2,1,0.994791667,"Selected",-0.820316976,0,59,3,77,455,99,"L  ",0.89,1.1,24,1,2,0,1,44
3,1,46,"folder/matchedM049IN.png",3,3.09438441,1,1,2,1,1,0.994791667,"Selected",0.235991219,0,59,3,77,455,99,"L  ",0.89,1.1,24,1,2,0,1,45
3,1,47,"folder/matchedM067SR.png",5,2.885176945,1,1,2,1,1,0.994791667,"Selected",0.114514371,0,59,3,77,455,99,"L  ",0.89,1.1,24,1,3,0,0,46
3,1,48,"folder/matchedM021.png  ",2,1.80294368,1,1,1,1,1,0.994791667,"Selected",-0.513887139,0,59,3,77,455,99,"L  ",0.89,1.1,24,1,1,1,0,47
3,1,49,"folder/matchedM008.png  ",2,3.143348239,1,1,1,1,1,0.994791667,"Selected",0.264422192,0,59,3,77,455,99,"L  ",0.89,1.1,24,1,1,1,0,48
3,1,50,"folder/matchedM019IN.png",4,3.583092271,1,2,1,2,1,0.994791667,"Selected",0.519760687,0,59,3,77,455,99,"L  ",0.89,1.1,24,1,2,0,1,49
3,1,51,"folder/matchedM001.png  ",2,1.947052952,1,2,1,2,1,0.994791667,"Selected",-0.430209722,0,59,3,77,455,99,"L  ",0.89,1.1,24,1,1,1,0,50
3,1,52,"folder/matchedM072.png  ",2,2.846572977,1,1,1,1,1,0.994791667,"Selected",0.092098878,0,59,3,77,455,99,"L  ",0.89,1.1,24,1,1,1,0,51
3,1,53,"folder/matchedM019.png  ",2,2.125931457,1,3,1,3,1,0.994791667,"Selected",-0.326343461,0,59,3,77,455,99,"L  ",0.89,1.1,24,1,1,1,0,52
3,1,54,"folder/matchedM001IN.png",4,4.563985871,1,1,1,1,1,0.994791667,"Selected",1.089319062,0,59,3,77,455,99,"L  ",0.89,1.1,24,1,2,0,1,53
3,1,55,"folder/matchedM016SL.png",5,1.234141662,1,2,2,2,1,0.994791667,"Selected",-0.844163484,0,59,3,77,455,99,"L  ",0.89,1.1,24,1,3,0,0,54
3,1,56,"folder/matchedM002.png  ",2,2.575640575,1,1,1,1,1,0.994791667,"Selected",-0.065218713,0,59,3,77,455,99,"L  ",0.89,1.1,24,1,1,1,0,55
3,1,57,"folder/matchedM005SR.png",6,4.54490303,1,2,1,2,1,0.994791667,"Selected",1.078238562,0,59,3,77,455,99,"L  ",0.89,1.1,24,1,3,0,0,56
3,1,58,"folder/matchedM001.png  ",1,1.205081434,1,3,2,3,1,0.994791667,"Selected",-0.861037379,0,59,3,77,455,99,"L  ",0.89,1.1,24,1,1,1,0,57
3,1,59,"folder/matchedM004IN.png",4,1.503657533,1,2,1,2,1,0.994791667,"Selected",-0.687668405,0,59,3,77,455,99,"L  ",0.89,1.1,24,1,2,0,1,58
3,1,60,"folder/matchedM006SL.png",6,1.525201875,1,2,1,2,1,0.994791667,"Selected",-0.675158627,0,59,3,77,455,99,"L  ",0.89,1.1,24,1,3,0,0,59
3,1,61,"folder/matchedM072IN.png",3,1.685930149,1,2,2,2,1,0.994791667,"Selected",-0.581831345,0,59,3,77,455,99,"L  ",0.89,1.1,24,1,2,0,1,60
3,1,62,"folder/matchedM020.png  ",1,1.515391964,1,1,2,1,1,0.994791667,"Selected",-0.680854777,0,59,3,77,455,99,"L  ",0.89,1.1,24,1,1,1,0,61
3,1,63,"folder/matchedM072SL.png",5,3.456816919,1,4,2,4,1,0.994791667,"Selected",0.446438582,0,59,3,77,455,99,"L  ",0.89,1.1,24,1,3,0,0,62
3,1,64,"folder/matchedM016.png  ",1,1.714333175,1,2,2,2,1,0.994791667,"Selected",-0.565339055,0,59,3,77,455,99,"L  ",0.89,1.1,24,1,1,1,0,63
3,1,65,"folder/matchedM019IN.png",3,2.650924848,1,3,2,3,1,0.994791667,"Selected",-0.021504708,0,59,3,77,455,99,"L  ",0.89,1.1,24,1,2,0,1,64
3,1,66,"folder/matchedM017.png  ",2,1.715273202,1,4,1,4,1,0.994791667,"Selected",-0.564793226,0,59,3,77,455,99,"L  ",0.89,1.1,24,1,1,1,0,65
3,1,67,"folder/matchedM017IN.png",4,5.665643512,1,3,1,3,1,0.994791667,"Selected",1.728999386,0,59,3,77,455,99,"L  ",0.89,1.1,24,1,2,0,1,66
3,1,68,"folder/matchedM067.png  ",2,1.35362607,1,1,1,1,1,0.994791667,"Selected",-0.774784557,0,59,3,77,455,99,"L  ",0.89,1.1,24,1,1,1,0,67
3,1,69,"folder/matchedM020SR.png",5,2.114786168,1,4,2,4,1,0.994791667,"Selected",-0.332815002,0,59,3,77,455,99,"L  ",0.89,1.1,24,1,3,0,0,68
3,1,70,"folder/matchedM020SR.png",6,4.065979106,1,1,1,1,1,0.994791667,"Selected",0.800150162,0,59,3,77,455,99,"L  ",0.89,1.1,24,1,3,0,0,69
3,1,71,"folder/matchedM017IN.png",3,3.307439786,1,1,2,1,1,0.994791667,"Selected",0.359702368,0,59,3,77,455,99,"L  ",0.89,1.1,24,1,2,0,1,70
3,1,72,"folder/matchedM008IN.png",4,1.844040284,1,3,1,3,1,0.994791667,"Selected",-0.490024291,0,59,3,77,455,99,"L  ",0.89,1.1,24,1,2,0,1,71
3,1,73,"folder/matchedM005.png  ",2,2.284726072,1,1,1,1,1,0.994791667,"Selected",-0.234138962,0,59,3,77,455,99,"L  ",0.89,1.1,24,1,1,1,0,72
3,1,75,"folder/matchedM019SL.png",5,7.71594218,1,1,2,1,1,0.994791667,"Selected",2.919510544,0,59,3,77,455,99,"L  ",0.89,1.1,24,1,3,0,0,74
3,1,76,"folder/matchedM021SL.png",5,1.951740539,1,1,2,1,1,0.994791667,"Selected",-0.427487863,0,59,3,77,455,99,"L  ",0.89,1.1,24,1,3,0,0,75
3,1,77,"folder/matchedM024IN.png",4,2.792989327,1,1,1,1,1,0.994791667,"Selected",0.060985395,0,59,3,77,455,99,"L  ",0.89,1.1,24,1,2,0,1,76
3,1,78,"folder/matchedM005SR.png",5,3.841543875,1,4,2,4,1,0.994791667,"Selected",0.669831272,0,59,3,77,455,99,"L  ",0.89,1.1,24,1,3,0,0,77
3,1,79,"folder/matchedM006.png  ",1,2.445698908,1,2,2,2,1,0.994791667,"Selected",-0.140669674,0,59,3,77,455,99,"L  ",0.89,1.1,24,1,1,1,0,78
3,1,80,"folder/matchedM003.png  ",2,5.342218152,1,1,1,1,1,0.994791667,"Selected",1.541201624,0,59,3,77,455,99,"L  ",0.89,1.1,24,1,1,1,0,79
3,1,81,"folder/matchedM020IN.png",3,5.273264796,1,4,2,4,1,0.994791667,"Selected",1.501163681,0,59,3,77,455,99,"L  ",0.89,1.1,24,1,2,0,1,80
3,1,82,"folder/matchedM002IN.png",3,1.994163111,1,1,2,1,1,0.994791667,"Selected",-0.402855088,0,59,3,77,455,99,"L  ",0.89,1.1,24,1,2,0,1,81
3,1,83,"folder/matchedM020.png  ",2,1.623408781,1,1,1,1,1,0.994791667,"Selected",-0.618134537,0,59,3,77,455,99,"L  ",0.89,1.1,24,1,1,1,0,82
3,1,84,"folder/matchedM002.png  ",1,1.451673733,1,3,2,3,1,0.994791667,"Selected",-0.717852931,0,59,3,77,455,99,"L  ",0.89,1.1,24,1,1,1,0,83
3,1,85,"folder/matchedM001SR.png",5,1.376750784,1,2,2,2,1,0.994791667,"Selected",-0.761357133,0,59,3,77,455,99,"L  ",0.89,1.1,24,1,3,0,0,84
3,1,86,"folder/matchedM008.png  ",1,1.96161772,1,1,2,1,1,0.994791667,"Selected",-0.421752652,0,59,3,77,455,99,"L  ",0.89,1.1,24,1,1,1,0,85
3,1,87,"folder/matchedM049IN.png",4,3.982585004,1,1,1,1,1,0.994791667,"Selected",0.751727164,0,59,3,77,455,99,"L  ",0.89,1.1,24,1,2,0,1,86
3,1,88,"folder/matchedM002SL.png",5,2.764949182,1,4,2,4,1,0.994791667,"Selected",0.044703813,0,59,3,77,455,99,"L  ",0.89,1.1,24,1,3,0,0,87
3,1,89,"folder/matchedM024SR.png",5,3.053475857,1,3,2,3,1,0.994791667,"Selected",0.212237564,0,59,3,77,455,99,"L  ",0.89,1.1,24,1,3,0,0,88
3,1,90,"folder/matchedM003SR.png",5,6.893016934,1,4,2,4,1,0.994791667,"Selected",2.441676898,0,59,3,77,455,99,"L  ",0.89,1.1,24,1,3,0,0,89
3,1,91,"folder/matchedM016IN.png",3,1.711939422,1,1,2,1,1,0.994791667,"Selected",-0.566728994,0,59,3,77,455,99,"L  ",0.89,1.1,24,1,2,0,1,90
3,1,92,"folder/matchedM004SL.png",6,5.888199483,1,1,1,1,1,0.994791667,"Selected",1.858227078,0,59,3,77,455,99,"L  ",0.89,1.1,24,1,3,0,0,91
3,1,93,"folder/matchedM021.png  ",1,4.133956405,1,1,2,1,1,0.994791667,"Selected",0.839621354,0,59,3,77,455,99,"L  ",0.89,1.1,24,1,1,1,0,92
3,1,94,"folder/matchedM067SR.png",6,3.532199173,1,3,1,3,1,0.994791667,"Selected",0.49020948,0,59,3,77,455,99,"L  ",0.89,1.1,24,1,3,0,0,93
3,1,95,"folder/matchedM001IN.png",3,2.595479467,1,3,2,3,1,0.994791667,"Selected",-0.05369921,0,59,3,77,455,99,"L  ",0.89,1.1,24,1,2,0,1,94
4,2,1,"folder/matchedM006IN.png",4,2.513548339,1,4,1,4,1,0.9375,"Selected",-0.399999744,0,52,7,75,448,96,"L  ",1.3,1.35,22,2,2,0,1,0
4,2,2,"folder/matchedM024IN.png",4,1.1042643,1,2,1,2,1,0.9375,"Selected",-1.215888876,0,52,7,75,448,96,"L  ",1.3,1.35,22,2,2,0,1,1
4,2,3,"folder/matchedM016SL.png",6,2.004958372,1,4,1,4,1,0.9375,"Selected",-0.69444218,0,52,7,75,448,96,"L  ",1.3,1.35,22,2,3,0,0,2
4,2,5,"folder/matchedM021IN.png",3,2.73182578,1,4,2,4,1,0.9375,"Selected",-0.273630476,0,52,7,75,448,96,"L  ",1.3,1.35,22,2,2,0,1,4
4,2,6,"folder/matchedM004IN.png",4,2.872385728,1,3,1,3,1,0.9375,"Selected",-0.192254876,0,52,7,75,448,96,"L  ",1.3,1.35,22,2,2,0,1,5
4,2,7,"folder/matchedM024.png  ",2,1.255886714,1,2,1,2,1,0.9375,"Selected",-1.128108786,0,52,7,75,448,96,"L  ",1.3,1.35,22,2,1,1,0,6
4,2,9,"folder/matchedM005.png  ",1,2.544765916,1,2,2,2,1,0.9375,"Selected",-0.381926679,0,52,7,75,448,96,"L  ",1.3,1.35,22,2,1,1,0,8
4,2,10,"folder/matchedM006.png  ",1,2.903946649,1,4,2,4,1,0.9375,"Selected",-0.173983037,0,52,7,75,448,96,"L  ",1.3,1.35,22,2,1,1,0,9
4,2,11,"folder/matchedM019IN.png",4,5.324349659,1,2,1,2,1,0.9375,"Selected",1.227282042,0,52,7,75,448,96,"L  ",1.3,1.35,22,2,2,0,1,10
4,2,12,"folder/matchedM004SL.png",5,1.986278792,1,2,2,2,1,0.9375,"Selected",-0.705256513,0,52,7,75,448,96,"L  ",1.3,1.35,22,2,3,0,0,11
4,2,13,"folder/matchedM017.png  ",1,2.12373039,1,3,2,3,1,0.9375,"Selected",-0.625680457,0,52,7,75,448,96,"L  ",1.3,1.35,22,2,1,1,0,12
4,2,14,"folder/matchedM004IN.png",3,4.614674839,1,3,2,3,1,0.9375,"Selected",0.816423793,0,52,7,75,448,96,"L  ",1.3,1.35,22,2,2,0,1,13
4,2,15,"folder/matchedM017SR.png",5,2.88126212,1,2,2,2,1,0.9375,"Selected",-0.187115989,0,52,7,75,448,96,"L  ",1.3,1.35,22,2,3,0,0,14
4,2,16,"folder/matchedM006.png  ",2,0.73285914,1,2,1,2,1,0.9375,"Selected",-1.430909713,0,52,7,75,448,96,"L  ",1.3,1.35,22,2,1,1,0,15
4,2,17,"folder/matchedM072.png  ",1,2.624083995,1,1,2,1,1,0.9375,"Selected",-0.33600637,0,52,7,75,448,96,"L  ",1.3,1.35,22,2,1,1,0,16
4,2,18,"folder/matchedM020SR.png",6,3.545865357,1,3,1,3,1,0.9375,"Selected",0.197648574,0,52,7,75,448,96,"L  ",1.3,1.35,22,2,3,0,0,17
4,2,19,"folder/matchedM003SR.png",6,4.466943386,1,1,1,1,1,0.9375,"Selected",0.730896331,0,52,7,75,448,96,"L  ",1.3,1.35,22,2,3,0,0,18
4,2,20,"folder/matchedM016.png  ",2,1.790396533,1,4,1,4,1,0.9375,"Selected",-0.818660342,0,52,7,75,448,96,"L  ",1.3,1.35,22,2,1,1,0,19
4,2,21,"folder/matchedM001IN.png",3,3.873152284,1,4,2,4,1,0.9375,"Selected",0.387127656,0,52,7,75,448,96,"L  ",1.3,1.35,22,2,2,0,1,20
4,2,22,"folder/matchedM001SR.png",5,5.234404619,1,4,2,4,1,0.9375,"Selected",1.175209374,0,52,7,75,448,96,"L  ",1.3,1.35,22,2,3,0,0,21
4,2,23,"folder/matchedM020IN.png",4,1.263962126,1,3,1,3,1,0.9375,"Selected",-1.123433617,0,52,7,75,448,96,"L  ",1.3,1.35,22,2,2,0,1,22
4,2,24,"folder/matchedM004.png  ",1,1.441594775,1,2,2,2,1,0.9375,"Selected",-1.020595194,0,52,7,75,448,96,"L  ",1.3,1.35,22,2,1,1,0,23
4,2,25,"folder/matchedM016SL.png",5,2.364272438,1,2,2,2,1,0.9375,"Selected",-0.486421346,0,52,7,75,448,96,"L  ",1.3,1.35,22,2,3,0,0,24
4,2,26,"folder/matchedM017.png  ",2,1.634638584,1,1,1,1,1,0.9375,"Selected",-0.908834654,0,52,7,75,448,96,"L  ",1.3,1.35,22,2,1,1,0,25
4,2,27,"folder/matchedM020.png  ",1,1.89365026,1,3,2,3,1,0.9375,"Selected",-0.758882759,0,52,7,75,448,96,"L  ",1.3,1.35,22,2,1,1,0,26
4,2,28,"folder/matchedM003.png  ",2,3.612501605,1,3,1,3,1,0.9375,"Selected",0.23622688,0,52,7,75,448,96,"L  ",1.3,1.35,22,2,1,1,0,27
4,2,29,"folder/matchedM024IN.png",3,5.62461825,1,4,2,4,1,0.9375,"Selected",1.401119163,0,52,7,75,448,96,"L  ",1.3,1.35,22,2,2,0,1,28
4,2,30,"folder/matchedM005IN.png",3,2.20487426,1,4,2,4,1,0.9375,"Selected",-0.578703127,0,52,7,75,448,96,"L  ",1.3,1.35,22,2,2,0,1,29
4,2,31,"folder/matchedM008SR.png",6,2.021489964,1,2,1,2,1,0.9375,"Selected",-0.684871401,0,52,7,75,448,96,"L  ",1.3,1.35,22,2,3,0,0,30
4,2,32,"folder/matchedM005SR.png",5,6.082332562,1,1,2,1,1,0.9375,"Selected",1.666107712,0,52,7,75,448,96,"L  ",1.3,1.35,22,2,3,0,0,31
4,2,33,"folder/matchedM004.png  ",2,1.662044959,1,4,1,4,1,0.9375,"Selected",-0.892968041,0,52,7,75,448,96,"L  ",1.3,1.35,22,2,1,1,0,32
4,2,34,"folder/matchedM019.png  ",2,1.882793924,1,2,1,2,1,0.9375,"Selected",-0.765167913,0,52,7,75,448,96,"L  ",1.3,1.35,22,2,1,1,0,33
4,2,35,"folder/matchedM005.png  ",2,1.334766149,1,1,1,1,1,0.9375,"Selected",-1.082442425,0,52,7,75,448,96,"L  ",1.3,1.35,22,2,1,1,0,34
4,2,37,"folder/matchedM005IN.png",4,2.241547738,1,4,1,4,1,0.9375,"Selected",-0.55747143,0,52,7,75,448,96,"L  ",1.3,1.35,22,2,2,0,1,36
4,2,38,"folder/matchedM020SR.png",5,2.744384641,1,1,2,1,1,0.9375,"Selected",-0.266359665,0,52,7,75,448,96,"L  ",1.3,1.35,22,2,3,0,0,37
4,2,39,"folder/matchedM004SL.png",6,3.59532574,1,3,1,3,1,0.9375,"Selected",0.226283106,0,52,7,75,448,96,"L  ",1.3,1.35,22,2,3,0,0,38
4,2,40,"folder/matchedM020IN.png",3,2.672259225,1,1,2,1,1,0.9375,"Selected",-0.308115863,0,52,7,75,448,96,"L  ",1.3,1.35,22,2,2,0,1,39
4,2,41,"folder/matchedM002SL.png",6,4.593944175,1,1,1,1,1,0.9375,"Selected",0.804422009,0,52,7,75,448,96,"L  ",1.3,1.35,22,2,3,0,0,40
4,2,42,"folder/matchedM017SR.png",6,1.86135116,1,4,1,4,1,0.9375,"Selected",-0.77758196,0,52,7,75,448,96,"L  ",1.3,1.35,22,2,3,0,0,41
4,2,43,"folder/matchedM021.png  ",1,1.724006975,1,2,2,2,1,0.9375,"Selected",-0.85709583,0,52,7,75,448,96,"L  ",1.3,1.35,22,2,1,1,0,42
4,2,44,"folder/matchedM002.png  ",1,1.383444947,1,2,2,2,1,0.9375,"Selected",-1.054260382,0,52,7,75,448,96,"L  ",1.3,1.35,22,2,1,1,0,43
4,2,45,"folder/matchedM001IN.png",4,3.811589473,1,3,1,3,1,0.9375,"Selected",0.35148656,0,52,7,75,448,96,"L  ",1.3,1.35,22,2,2,0,1,44
4,2,46,"folder/matchedM067.png  ",1,4.631445599,1,3,2,3,1,0.9375,"Selected",0.826133036,0,52,7,75,448,96,"L  ",1.3,1.35,22,2,1,1,0,45
4,2,47,"folder/matchedM017IN.png",4,5.814896459,1,2,1,2,1,0.9375,"Selected",1.51127859,0,52,7,75,448,96,"L  ",1.3,1.35,22,2,2,0,1,46
4,2,48,"folder/matchedM021SL.png",5,7.15316427,1,4,2,4,1,0.9375,"Selected",2.286053676,0,52,7,75,448,96,"L  ",1.3,1.35,22,2,3,0,0,47
4,2,49,"folder/matchedM024.png  ",1,2.611757238,1,2,2,2,1,0.9375,"Selected",-0.343142807,0,52,7,75,448,96,"L  ",1.3,1.35,22,2,1,1,0,48
4,2,50,"folder/matchedM049.png  ",1,2.525350465,1,4,2,4,1,0.9375,"Selected",-0.393167036,0,52,7,75,448,96,"L  ",1.3,1.35,22,2,1,1,0,49
4,2,52,"folder/matchedM016IN.png",3,2.462138783,1,4,2,4,1,0.9375,"Selected",-0.429762728,0,52,7,75,448,96,"L  ",1.3,1.35,22,2,2,0,1,51
4,2,53,"folder/matchedM016IN.png",4,2.352990508,1,1,1,1,1,0.9375,"Selected",-0.492952893,0,52,7,75,448,96,"L  ",1.3,1.35,22,2,2,0,1,52
4,2,54,"folder/matchedM006SL.png",5,2.479532831,1,1,2,1,1,0.9375,"Selected",-0.419692639,0,52,7,75,448,96,"L  ",1.3,1.35,22,2,3,0,0,53
4,2,55,"folder/matchedM049IN.png",3,1.983458688,1,3,2,3,1,0.9375,"Selected",-0.706889181,0,52,7,75,448,96,"L  ",1.3,1.35,22,2,2,0,1,54
4,2,56,"folder/matchedM024SR.png",6,3.941568809,1,4,1,4,1,0.9375,"Selected",0.426736634,0,52,7,75,448,96,"L  ",1.3,1.35,22,2,3,0,0,55
4,2,57,"folder/matchedM049SL.png",6,2.40505812,1,4,1,4,1,0.9375,"Selected",-0.462808935,0,52,7,75,448,96,"L  ",1.3,1.35,22,2,3,0,0,56
4,2,58,"folder/matchedM072IN.png",4,1.772321557,1,4,1,4,1,0.9375,"Selected",-0.829124646,0,52,7,75,448,96,"L  ",1.3,1.35,22,2,2,0,1,57
4,2,60,"folder/matchedM001SR.png",6,2.815202014,1,2,1,2,1,0.9375,"Selected",-0.225360744,0,52,7,75,448,96,"L  ",1.3,1.35,22,2,3,0,0,59
4,2,61,"folder/matchedM008.png  ",1,1.98479913,1,1,2,1,1,0.9375,"Selected",-0.706113147,0,52,7,75,448,96,"L  ",1.3,1.35,22,2,1,1,0,60
4,2,62,"folder/matchedM001.png  ",1,1.433508543,1,2,2,2,1,0.9375,"Selected",-1.025276627,0,52,7,75,448,96,"L  ",1.3,1.35,22,2,1,1,0,61
4,2,63,"folder/matchedM003IN.png",4,2.962907351,1,1,1,1,1,0.9375,"Selected",-0.139848402,0,52,7,75,448,96,"L  ",1.3,1.35,22,2,2,0,1,62
4,2,64,"folder/matchedM067SR.png",6,5.662085222,1,2,1,2,1,0.9375,"Selected",1.422810245,0,52,7,75,448,96,"L  ",1.3,1.35,22,2,3,0,0,63
4,2,65,"folder/matchedM003IN.png",3,5.921652724,1,2,2,2,1,0.9375,"Selected",1.573083929,0,52,7,75,448,96,"L  ",1.3,1.35,22,2,2,0,1,64
4,2,66,"folder/matchedM008.png  ",2,3.609629464,1,3,1,3,1,0.9375,"Selected",0.234564086,0,52,7,75,448,96,"L  ",1.3,1.35,22,2,1,1,0,65
4,2,67,"folder/matchedM020.png  ",2,1.052366317,1,2,1,2,1,0.9375,"Selected",-1.245934628,0,52,7,75,448,96,"L  ",1.3,1.35,22,2,1,1,0,66
4,2,68,"folder/matchedM021IN.png",4,4.580386284,1,4,1,4,1,0.9375,"Selected",0.79657282,0,52,7,75,448,96,"L  ",1.3,1.35,22,2,2,0,1,67
4,2,69,"folder/matchedM017IN.png",3,1.801923052,1,1,2,1,1,0.9375,"Selected",-0.811987194,0,52,7,75,448,96,"L  ",1.3,1.35,22,2,2,0,1,68
4,2,70,"folder/matchedM001.png  ",2,1.860771653,1,1,1,1,1,0.9375,"Selected",-0.777917459,0,52,7,75,448,96,"L  ",1.3,1.35,22,2,1,1,0,69
4,2,71,"folder/matchedM072SL.png",6,2.174047184,1,3,1,3,1,0.9375,"Selected",-0.596550116,0,52,7,75,448,96,"L  ",1.3,1.35,22,2,3,0,0,70
4,2,72,"folder/matchedM067.png  ",2,1.112108033,1,2,1,2,1,0.9375,"Selected",-1.211347835,0,52,7,75,448,96,"L  ",1.3,1.35,22,2,1,1,0,71
4,2,73,"folder/matchedM008SR.png",5,2.621532886,1,3,2,3,1,0.9375,"Selected",-0.337483306,0,52,7,75,448,96,"L  ",1.3,1.35,22,2,3,0,0,72
4,2,74,"folder/matchedM067IN.png",4,1.743726337,1,1,1,1,1,0.9375,"Selected",-0.845679527,0,52,7,75,448,96,"L  ",1.3,1.35,22,2,2,0,1,73
4,2,75,"folder/matchedM002SL.png",5,3.103221741,1,1,2,1,1,0.9375,"Selected",-0.058614965,0,52,7,75,448,96,"L  ",1.3,1.35,22,2,3,0,0,74
4,2,76,"folder/matchedM002IN.png",4,3.233407861,1,4,1,4,1,0.9375,"Selected",0.016754824,0,52,7,75,448,96,"L  ",1.3,1.35,22,2,2,0,1,75
4,2,77,"folder/matchedM049SL.png",5,5.442791713,1,3,2,3,1,0.9375,"Selected",1.295852736,0,52,7,75,448,96,"L  ",1.3,1.35,22,2,3,0,0,76
4,2,78,"folder/matchedM024SR.png",5,2.971816483,1,2,2,2,1,0.9375,"Selected",-0.13469056,0,52,7,75,448,96,"L  ",1.3,1.35,22,2,3,0,0,77
4,2,80,"folder/matchedM049IN.png",4,2.892681316,1,2,1,2,1,0.9375,"Selected",-0.180504974,0,52,7,75,448,96,"L  ",1.3,1.35,22,2,2,0,1,79
4,2,81,"folder/matchedM006IN.png",3,7.752436197,1,4,2,4,1,0.9375,"Selected",2.632995413,0,52,7,75,448,96,"L  ",1.3,1.35,22,2,2,0,1,80
4,2,82,"folder/matchedM019.png  ",1,1.402514321,1,2,2,2,1,0.9375,"Selected",-1.043220383,0,52,7,75,448,96,"L  ",1.3,1.35,22,2,1,1,0,81
4,2,83,"folder/matchedM008IN.png",3,5.032504024,1,4,2,4,1,0.9375,"Selected",1.058321297,0,52,7,75,448,96,"L  ",1.3,1.35,22,2,2,0,1,82
4,2,84,"folder/matchedM072.png  ",2,1.290712446,1,1,1,1,1,0.9375,"Selected",-1.10794682,0,52,7,75,448,96,"L  ",1.3,1.35,22,2,1,1,0,83
4,2,85,"folder/matchedM019IN.png",3,2.56102439,1,4,2,4,1,0.9375,"Selected",-0.372514018,0,52,7,75,448,96,"L  ",1.3,1.35,22,2,2,0,1,84
4,2,86,"folder/matchedM008IN.png",4,2.845012026,1,4,1,4,1,0.9375,"Selected",-0.208102573,0,52,7,75,448,96,"L  ",1.3,1.35,22,2,2,0,1,85
4,2,87,"folder/matchedM016.png  ",1,2.353022113,1,3,2,3,1,0.9375,"Selected",-0.492934596,0,52,7,75,448,96,"L  ",1.3,1.35,22,2,1,1,0,86
4,2,88,"folder/matchedM067SR.png",5,5.413129964,1,3,2,3,1,0.9375,"Selected",1.2786804,0,52,7,75,448,96,"L  ",1.3,1.35,22,2,3,0,0,87
4,2,89,"folder/matchedM003.png  ",1,1.551110325,1,2,2,2,1,0.9375,"Selected",-0.957192399,0,52,7,75,448,96,"L  ",1.3,1.35,22,2,1,1,0,88
4,2,90,"folder/matchedM067IN.png",3,2.733536441,1,1,2,1,1,0.9375,"Selected",-0.272640108,0,52,7,75,448,96,"L  ",1.3,1.35,22,2,2,0,1,89
4,2,91,"folder/matchedM006SL.png",6,2.203721197,1,3,1,3,1,0.9375,"Selected",-0.57937068,0,52,7,75,448,96,"L  ",1.3,1.35,22,2,3,0,0,90
4,2,92,"folder/matchedM002IN.png",3,2.733707011,1,2,2,2,1,0.9375,"Selected",-0.272541359,0,52,7,75,448,96,"L  ",1.3,1.35,22,2,2,0,1,91
4,2,93,"folder/matchedM049.png  ",2,2.332995061,1,4,1,4,1,0.9375,"Selected",-0.504529032,0,52,7,75,448,96,"L  ",1.3,1.35,22,2,1,1,0,92
4,2,94,"folder/matchedM005SR.png",6,1.383708543,1,2,1,2,1,0.9375,"Selected",-1.054107777,0,52,7,75,448,96,"L  ",1.3,1.35,22,2,3,0,0,93
4,2,95,"folder/matchedM002.png  ",2,1.76467824,1,4,1,4,1,0.9375,"Selected",-0.833549659,0,52,7,75,448,96,"L  ",1.3,1.35,22,2,1,1,0,94
4,2,96,"folder/matchedM003SR.png",5,2.512548497,1,1,2,1,1,0.9375,"Selected",-0.400578591,0,52,7,75,448,96,"L  ",1.3,1.35,22,2,3,0,0,95
4,1,1,"folder/matchedM019.png  ",1,2.582543402,1,1,2,1,1,0.9375,"Selected",-0.360055829,0,52,7,75,448,96,"L  ",1.3,1.35,22,2,1,1,0,0
4,1,2,"folder/matchedM072.png  ",2,2.464609818,1,4,1,4,1,0.9375,"Selected",-0.42833215,0,52,7,75,448,96,"L  ",1.3,1.35,22,2,1,1,0,1
4,1,3,"folder/matchedM049IN.png",4,6.189967502,1,4,1,4,1,0.9375,"Selected",1.728421749,0,52,7,75,448,96,"L  ",1.3,1.35,22,2,2,0,1,2
4,1,4,"folder/matchedM021SL.png",6,3.774710309,1,1,1,1,1,0.9375,"Selected",0.330135783,0,52,7,75,448,96,"L  ",1.3,1.35,22,2,3,0,0,3
4,1,5,"folder/matchedM002SL.png",5,3.587784767,1,3,2,3,1,0.9375,"Selected",0.221917345,0,52,7,75,448,96,"L  ",1.3,1.35,22,2,3,0,0,4
4,1,6,"folder/matchedM020.png  ",2,1.577105372,1,1,1,1,1,0.9375,"Selected",-0.942142859,0,52,7,75,448,96,"L  ",1.3,1.35,22,2,1,1,0,5
4,1,7,"folder/matchedM067SR.png",6,5.365969553,1,3,1,3,1,0.9375,"Selected",1.251377411,0,52,7,75,448,96,"L  ",1.3,1.35,22,2,3,0,0,6
4,1,8,"folder/matchedM005.png  ",2,1.384519217,1,3,1,3,1,0.9375,"Selected",-1.053638446,0,52,7,75,448,96,"L  ",1.3,1.35,22,2,1,1,0,7
4,1,10,"folder/matchedM004IN.png",3,1.767737011,1,4,2,4,1,0.9375,"Selected",-0.831778818,0,52,7,75,448,96,"L  ",1.3,1.35,22,2,2,0,1,9
4,1,11,"folder/matchedM067.png  ",1,1.413352048,1,2,2,2,1,0.9375,"Selected",-1.036946003,0,52,7,75,448,96,"L  ",1.3,1.35,22,2,1,1,0,10
4,1,12,"folder/matchedM016.png  ",1,2.525496949,1,2,2,2,1,0.9375,"Selected",-0.393082231,0,52,7,75,448,96,"L  ",1.3,1.35,22,2,1,1,0,11
4,1,13,"folder/matchedM020SR.png",5,5.385502778,1,1,2,1,1,0.9375,"Selected",1.262685952,0,52,7,75,448,96,"L  ",1.3,1.35,22,2,3,0,0,12
4,1,14,"folder/matchedM006IN.png",3,5.044627474,1,1,2,1,1,0.9375,"Selected",1.065340032,0,52,7,75,448,96,"L  ",1.3,1.35,22,2,2,0,1,13
4,1,15,"folder/matchedM002.png  ",2,1.854861996,1,4,1,4,1,0.9375,"Selected",-0.781338788,0,52,7,75,448,96,"L  ",1.3,1.35,22,2,1,1,0,14
4,1,16,"folder/matchedM024IN.png",4,6.000578306,1,2,1,2,1,0.9375,"Selected",1.618777006,0,52,7,75,448,96,"L  ",1.3,1.35,22,2,2,0,1,15
4,1,17,"folder/matchedM016.png  ",2,2.016298942,1,4,1,4,1,0.9375,"Selected",-0.687876685,0,52,7,75,448,96,"L  ",1.3,1.35,22,2,1,1,0,16
4,1,18,"folder/matchedM004.png  ",2,3.402653469,1,3,1,3,1,0.9375,"Selected",0.114737663,0,52,7,75,448,96,"L  ",1.3,1.35,22,2,1,1,0,17
4,1,19,"folder/matchedM017.png  ",2,1.594212682,1,4,1,4,1,0.9375,"Selected",-0.932238775,0,52,7,75,448,96,"L  ",1.3,1.35,22,2,1,1,0,18
4,1,20,"folder/matchedM020.png  ",1,1.815571311,1,3,2,3,1,0.9375,"Selected",-0.804085688,0,52,7,75,448,96,"L  ",1.3,1.35,22,2,1,1,0,19
4,1,21,"folder/matchedM017SR.png",6,3.984876691,1,2,1,2,1,0.9375,"Selected",0.451809244,0,52,7,75,448,96,"L  ",1.3,1.35,22,2,3,0,0,20
4,1,22,"folder/matchedM020SR.png",6,4.606750565,1,4,1,4,1,0.9375,"Selected",0.811836124,0,52,7,75,448,96,"L  ",1.3,1.35,22,2,3,0,0,21
4,1,23,"folder/matchedM002IN.png",4,1.912071361,1,3,1,3,1,0.9375,"Selected",-0.74821807,0,52,7,75,448,96,"L  ",1.3,1.35,22,2,2,0,1,22
4,1,25,"folder/matchedM072IN.png",4,2.945574264,1,3,1,3,1,0.9375,"Selected",-0.149883197,0,52,7,75,448,96,"L  ",1.3,1.35,22,2,2,0,1,24
4,1,26,"folder/matchedM067SR.png",5,2.344485614,1,2,2,2,1,0.9375,"Selected",-0.497876705,0,52,7,75,448,96,"L  ",1.3,1.35,22,2,3,0,0,25
4,1,27,"folder/matchedM002IN.png",3,1.843301583,1,1,2,1,1,0.9375,"Selected",-0.788031559,0,52,7,75,448,96,"L  ",1.3,1.35,22,2,2,0,1,26
4,1,28,"folder/matchedM049.png  ",2,1.083577323,1,1,1,1,1,0.9375,"Selected",-1.227865368,0,52,7,75,448,96,"L  ",1.3,1.35,22,2,1,1,0,27
4,1,29,"folder/matchedM006.png  ",2,2.16409962,1,3,1,3,1,0.9375,"Selected",-0.602309147,0,52,7,75,448,96,"L  ",1.3,1.35,22,2,1,1,0,28
4,1,30,"folder/matchedM072SL.png",6,5.062010775,1,4,1,4,1,0.9375,"Selected",1.075403898,0,52,7,75,448,96,"L  ",1.3,1.35,22,2,3,0,0,29
4,1,31,"folder/matchedM067IN.png",4,1.633671226,1,4,1,4,1,0.9375,"Selected",-0.909394694,0,52,7,75,448,96,"L  ",1.3,1.35,22,2,2,0,1,30
4,1,32,"folder/matchedM002SL.png",6,5.032693992,1,3,1,3,1,0.9375,"Selected",1.058431277,0,52,7,75,448,96,"L  ",1.3,1.35,22,2,3,0,0,31
4,1,33,"folder/matchedM020IN.png",3,1.942336573,1,2,2,2,1,0.9375,"Selected",-0.730696367,0,52,7,75,448,96,"L  ",1.3,1.35,22,2,2,0,1,32
4,1,34,"folder/matchedM005IN.png",3,4.241959794,1,3,2,3,1,0.9375,"Selected",0.600644613,0,52,7,75,448,96,"L  ",1.3,1.35,22,2,2,0,1,33
4,1,35,"folder/matchedM024SR.png",6,7.549522458,1,2,1,2,1,0.9375,"Selected",2.515520788,0,52,7,75,448,96,"L  ",1.3,1.35,22,2,3,0,0,34
4,1,36,"folder/matchedM019IN.png",4,1.133831204,1,4,1,4,1,0.9375,"Selected",-1.198771449,0,52,7,75,448,96,"L  ",1.3,1.35,22,2,2,0,1,35
4,1,37,"folder/matchedM049IN.png",3,4.033752623,1,3,2,3,1,0.9375,"Selected",0.480105415,0,52,7,75,448,96,"L  ",1.3,1.35,22,2,2,0,1,36
4,1,38,"folder/matchedM067.png  ",2,1.166065376,1,3,1,3,1,0.9375,"Selected",-1.180109838,0,52,7,75,448,96,"L  ",1.3,1.35,22,2,1,1,0,37
4,1,40,"folder/matchedM001.png  ",2,2.70364358,1,3,1,3,1,0.9375,"Selected",-0.289946244,0,52,7,75,448,96,"L  ",1.3,1.35,22,2,1,1,0,39
4,1,41,"folder/matchedM020IN.png",4,2.193287264,1,4,1,4,1,0.9375,"Selected",-0.585411288,0,52,7,75,448,96,"L  ",1.3,1.35,22,2,2,0,1,40
4,1,42,"folder/matchedM072IN.png",3,3.996980217,1,4,2,4,1,0.9375,"Selected",0.458816444,0,52,7,75,448,96,"L  ",1.3,1.35,22,2,2,0,1,41
4,1,43,"folder/matchedM021.png  ",2,2.762250649,1,1,1,1,1,0.9375,"Selected",-0.256016341,0,52,7,75,448,96,"L  ",1.3,1.35,22,2,1,1,0,42
4,1,45,"folder/matchedM001.png  ",1,2.272967096,1,4,2,4,1,0.9375,"Selected",-0.539281546,0,52,7,75,448,96,"L  ",1.3,1.35,22,2,1,1,0,44
4,1,46,"folder/matchedM049SL.png",6,4.255438592,1,2,1,2,1,0.9375,"Selected",0.608448011,0,52,7,75,448,96,"L  ",1.3,1.35,22,2,3,0,0,45
4,1,47,"folder/matchedM021IN.png",4,4.192217672,1,1,1,1,1,0.9375,"Selected",0.571846972,0,52,7,75,448,96,"L  ",1.3,1.35,22,2,2,0,1,46
4,1,48,"folder/matchedM016SL.png",6,1.947690974,1,2,1,2,1,0.9375,"Selected",-0.727596496,0,52,7,75,448,96,"L  ",1.3,1.35,22,2,3,0,0,47
4,1,49,"folder/matchedM049SL.png",5,4.802411167,1,2,2,2,1,0.9375,"Selected",0.925111627,0,52,7,75,448,96,"L  ",1.3,1.35,22,2,3,0,0,48
4,1,50,"folder/matchedM008IN.png",3,1.604475094,1,4,2,4,1,0.9375,"Selected",-0.926297467,0,52,7,75,448,96,"L  ",1.3,1.35,22,2,2,0,1,49
4,1,52,"folder/matchedM005.png  ",1,2.641108531,1,4,2,4,1,0.9375,"Selected",-0.326150206,0,52,7,75,448,96,"L  ",1.3,1.35,22,2,1,1,0,51
4,1,53,"folder/matchedM004IN.png",4,3.50542562,1,3,1,3,1,0.9375,"Selected",0.174236444,0,52,7,75,448,96,"L  ",1.3,1.35,22,2,2,0,1,52
4,1,54,"folder/matchedM003SR.png",6,3.702887981,1,3,1,3,1,0.9375,"Selected",0.288555055,0,52,7,75,448,96,"L  ",1.3,1.35,22,2,3,0,0,53
4,1,56,"folder/matchedM024SR.png",5,3.713431041,1,3,2,3,1,0.9375,"Selected",0.29465884,0,52,7,75,448,96,"L  ",1.3,1.35,22,2,3,0,0,55
4,1,58,"folder/matchedM008.png  ",2,1.305423844,1,2,1,2,1,0.9375,"Selected",-1.099429822,0,52,7,75,448,96,"L  ",1.3,1.35,22,2,1,1,0,57
4,1,59,"folder/matchedM067IN.png",3,3.503307805,1,1,2,1,1,0.9375,"Selected",0.173010358,0,52,7,75,448,96,"L  ",1.3,1.35,22,2,2,0,1,58
4,1,60,"folder/matchedM003IN.png",4,5.735710387,1,1,1,1,1,0.9375,"Selected",1.465434705,0,52,7,75,448,96,"L  ",1.3,1.35,22,2,2,0,1,59
4,1,61,"folder/matchedM002.png  ",1,2.282431821,1,1,2,1,1,0.9375,"Selected",-0.53380205,0,52,7,75,448,96,"L  ",1.3,1.35,22,2,1,1,0,60
4,1,62,"folder/matchedM003.png  ",2,1.22670602,1,2,1,2,1,0.9375,"Selected",-1.14500262,0,52,7,75,448,96,"L  ",1.3,1.35,22,2,1,1,0,61
4,1,63,"folder/matchedM016IN.png",4,1.603282621,1,1,1,1,1,0.9375,"Selected",-0.926987836,0,52,7,75,448,96,"L  ",1.3,1.35,22,2,2,0,1,62
4,1,64,"folder/matchedM008SR.png",6,3.4526991,1,4,1,4,1,0.9375,"Selected",0.143711018,0,52,7,75,448,96,"L  ",1.3,1.35,22,2,3,0,0,63
4,1,65,"folder/matchedM024.png  ",2,1.922097154,1,4,1,4,1,0.9375,"Selected",-0.74241375,0,52,7,75,448,96,"L  ",1.3,1.35,22,2,1,1,0,64
4,1,66,"folder/matchedM004SL.png",5,3.200249531,1,1,2,1,1,0.9375,"Selected",-0.002441818,0,52,7,75,448,96,"L  ",1.3,1.35,22,2,3,0,0,65
4,1,67,"folder/matchedM019.png  ",2,2.587668376,1,4,1,4,1,0.9375,"Selected",-0.357088783,0,52,7,75,448,96,"L  ",1.3,1.35,22,2,1,1,0,66
4,1,68,"folder/matchedM072.png  ",1,5.603800591,1,4,2,4,1,0.9375,"Selected",1.389067014,0,52,7,75,448,96,"L  ",1.3,1.35,22,2,1,1,0,67
4,1,69,"folder/matchedM006IN.png",4,2.284133794,1,1,1,1,1,0.9375,"Selected",-0.532816712,0,52,7,75,448,96,"L  ",1.3,1.35,22,2,2,0,1,68
4,1,70,"folder/matchedM006SL.png",5,1.590162162,1,2,2,2,1,0.9375,"Selected",-0.934583777,0,52,7,75,448,96,"L  ",1.3,1.35,22,2,3,0,0,69
4,1,71,"folder/matchedM008IN.png",4,1.308819699,1,4,1,4,1,0.9375,"Selected",-1.097463829,0,52,7,75,448,96,"L  ",1.3,1.35,22,2,2,0,1,70
4,1,72,"folder/matchedM005SR.png",6,3.389203734,1,2,1,2,1,0.9375,"Selected",0.106951091,0,52,7,75,448,96,"L  ",1.3,1.35,22,2,3,0,0,71
4,1,73,"folder/matchedM017IN.png",3,5.424665163,1,3,2,3,1,0.9375,"Selected",1.285358574,0,52,7,75,448,96,"L  ",1.3,1.35,22,2,2,0,1,72
4,1,74,"folder/matchedM008SR.png",5,3.202714205,1,1,2,1,1,0.9375,"Selected",-0.001014923,0,52,7,75,448,96,"L  ",1.3,1.35,22,2,3,0,0,73
4,1,75,"folder/matchedM072SL.png",5,5.182249301,1,1,2,1,1,0.9375,"Selected",1.145014639,0,52,7,75,448,96,"L  ",1.3,1.35,22,2,3,0,0,74
4,1,76,"folder/matchedM017IN.png",4,6.049288731,1,2,1,2,1,0.9375,"Selected",1.646977358,0,52,7,75,448,96,"L  ",1.3,1.35,22,2,2,0,1,75
4,1,77,"folder/matchedM004.png  ",1,6.461940502,1,3,2,3,1,0.9375,"Selected",1.885877456,0,52,7,75,448,96,"L  ",1.3,1.35,22,2,1,1,0,76
4,1,78,"folder/matchedM019SL.png",6,6.300132198,1,4,1,4,1,0.9375,"Selected",1.79220036,0,52,7,75,448,96,"L  ",1.3,1.35,22,2,3,0,0,77
4,1,79,"folder/matchedM016IN.png",3,2.692566185,1,1,2,1,1,0.9375,"Selected",-0.296359377,0,52,7,75,448,96,"L  ",1.3,1.35,22,2,2,0,1,78
4,1,81,"folder/matchedM024IN.png",3,5.980864345,1,2,2,2,1,0.9375,"Selected",1.60736383,0,52,7,75,448,96,"L  ",1.3,1.35,22,2,2,0,1,80
4,1,82,"folder/matchedM021SL.png",5,5.392935582,1,1,2,1,1,0.9375,"Selected",1.26698909,0,52,7,75,448,96,"L  ",1.3,1.35,22,2,3,0,0,81
4,1,83,"folder/matchedM008.png  ",1,4.904485715,1,2,2,2,1,0.9375,"Selected",0.984206538,0,52,7,75,448,96,"L  ",1.3,1.35,22,2,1,1,0,82
4,1,84,"folder/matchedM003.png  ",1,3.181138367,1,3,2,3,1,0.9375,"Selected",-0.013506011,0,52,7,75,448,96,"L  ",1.3,1.35,22,2,1,1,0,83
4,1,85,"folder/matchedM006.png  ",1,3.515922124,1,1,2,1,1,0.9375,"Selected",0.180313276,0,52,7,75,448,96,"L  ",1.3,1.35,22,2,1,1,0,84
4,1,86,"folder/matchedM017SR.png",5,4.267046779,1,3,2,3,1,0.9375,"Selected",0.615168441,0,52,7,75,448,96,"L  ",1.3,1.35,22,2,3,0,0,85
4,1,87,"folder/matchedM024.png  ",1,1.313058872,1,3,2,3,1,0.9375,"Selected",-1.095009608,0,52,7,75,448,96,"L  ",1.3,1.35,22,2,1,1,0,86
4,1,88,"folder/matchedM004SL.png",6,4.542278805,1,3,1,3,1,0.9375,"Selected",0.774510924,0,52,7,75,448,96,"L  ",1.3,1.35,22,2,3,0,0,87
4,1,90,"folder/matchedM003SR.png",5,1.831700049,1,2,2,2,1,0.9375,"Selected",-0.794748137,0,52,7,75,448,96,"L  ",1.3,1.35,22,2,3,0,0,89
4,1,91,"folder/matchedM017.png  ",1,1.802363736,1,4,2,4,1,0.9375,"Selected",-0.811732065,0,52,7,75,448,96,"L  ",1.3,1.35,22,2,1,1,0,90
4,1,92,"folder/matchedM005SR.png",5,3.823673962,1,4,2,4,1,0.9375,"Selected",0.358482739,0,52,7,75,448,96,"L  ",1.3,1.35,22,2,3,0,0,91
4,1,93,"folder/matchedM001IN.png",3,6.475333515,1,3,2,3,1,0.9375,"Selected",1.89363119,0,52,7,75,448,96,"L  ",1.3,1.35,22,2,2,0,1,92
4,1,94,"folder/matchedM001IN.png",4,4.114769674,1,2,1,2,1,0.9375,"Selected",0.527009325,0,52,7,75,448,96,"L  ",1.3,1.35,22,2,2,0,1,93
4,1,95,"folder/matchedM016SL.png",5,2.250995776,1,2,2,2,1,0.9375,"Selected",-0.552001595,0,52,7,75,448,96,"L  ",1.3,1.35,22,2,3,0,0,94
4,1,96,"folder/matchedM021.png  ",1,3.142512851,1,4,2,4,1,0.9375,"Selected",-0.035867819,0,52,7,75,448,96,"L  ",1.3,1.35,22,2,1,1,0,95
5,2,1,"folder/matchedM003.png  ",1,1.631314048,1,2,2,2,1,0.979166667,"Selected",-0.083611629,0,101,44,187,570,99,"R  ",1.12,0.54,19,2,1,1,0,0
5,2,2,"folder/matchedM002IN.png",4,1.173995856,1,3,1,3,1,0.979166667,"Selected",-0.504967868,0,101,44,187,570,99,"R  ",1.12,0.54,19,2,2,0,1,1
5,2,3,"folder/matchedM021IN.png",4,1.787924889,1,2,1,2,1,0.979166667,"Selected",0.060683867,0,101,44,187,570,99,"R  ",1.12,0.54,19,2,2,0,1,2
5,2,4,"folder/matchedM006SL.png",5,1.148542524,1,4,2,4,1,0.979166667,"Selected",-0.528419636,0,101,44,187,570,99,"R  ",1.12,0.54,19,2,3,0,0,3
