"ID","pracword","valence","word","trials_2.thisRepN","trials_2.thisTrialN","trials_2.thisN","trials_2.thisIndex","trials.thisRepN","trials.thisTrialN","trials.thisN","trials.thisIndex","key_resp_3.keys","key_resp_3.rt","key_resp_4.keys","key_resp_4.rt","response.keys","response.corr","response.rt","date","frameRate","expName","session","participant","trial40","trial40c","rt","logrt","id","valenceE","rtms","rt.z"
201,NA,"negative","insecure",NA,NA,NA,NA,0,0,0,22,NA,NA,NA,NA,"up",0,0.77643013,"2016_Sep_30_1104",60.00632353,"heterogeneity160929b",1,201,1,-0.475,0.77643013,6.65470665785769,201,-0.5,776.43013,-0.614005050958385
201,NA,"positive","thrifty",NA,NA,NA,NA,0,7,7,2,NA,NA,NA,NA,"up",0,0.809092999,"2016_Sep_30_1104",60.00632353,"heterogeneity160929b",1,201,8,-0.3,0.809092999,6.69591386595223,201,0.5,809.092999,-0.522270754482409
201,NA,"positive","wise",NA,NA,NA,NA,0,9,9,19,NA,NA,NA,NA,"up",0,0.977444172,"2016_Sep_30_1104",60.00632353,"heterogeneity160929b",1,201,10,-0.25,0.977444172,6.88494117718503,201,0.5,977.444172,-0.049453243685661
201,NA,"negative","clumsy",NA,NA,NA,NA,0,11,11,23,NA,NA,NA,NA,"up",0,0.826735973,"2016_Sep_30_1104",60.00632353,"heterogeneity160929b",1,201,12,-0.2,0.826735973,6.71748538528314,201,-0.5,826.735973,-0.472720122306346
201,NA,"negative","anxious",NA,NA,NA,NA,0,12,12,35,NA,NA,NA,NA,"up",0,0.843029976,"2016_Sep_30_1104",60.00632353,"heterogeneity160929b",1,201,13,-0.175,0.843029976,6.73700251608852,201,-0.5,843.029976,-0.426958101156813
201,NA,"positive","enthusiastic",NA,NA,NA,NA,0,13,13,16,NA,NA,NA,NA,"up",0,0.840566874,"2016_Sep_30_1104",60.00632353,"heterogeneity160929b",1,201,14,-0.15,0.840566874,6.73407651422849,201,0.5,840.566874,-0.433875770548273
201,NA,"positive","ambitious",NA,NA,NA,NA,0,14,14,10,NA,NA,NA,NA,"up",0,0.675525904,"2016_Sep_30_1104",60.00632353,"heterogeneity160929b",1,201,15,-0.125,0.675525904,6.51549150455544,201,0.5,675.525904,-0.897396512485015
201,NA,"negative","fearful",NA,NA,NA,NA,0,17,17,24,NA,NA,NA,NA,"up",0,1.559458017,"2016_Sep_30_1104",60.00632353,"heterogeneity160929b",1,201,18,-0.05,1.559458017,7.35209361487754,201,-0.5,1559.458017,1.58514384606639
201,NA,"positive","courageous",NA,NA,NA,NA,0,18,18,15,NA,NA,NA,NA,"up",0,1.175184965,"2016_Sep_30_1104",60.00632353,"heterogeneity160929b",1,201,19,-0.025,1.175184965,7.06918083121078,201,0.5,1175.184965,0.505905580747567
201,NA,"positive","confident",NA,NA,NA,NA,0,19,19,7,NA,NA,NA,NA,"up",0,0.991899014,"2016_Sep_30_1104",60.00632353,"heterogeneity160929b",1,201,20,0,0.991899014,6.89962130169963,201,0.5,991.899014,-0.00885654161575444
201,NA,"positive","persistent",NA,NA,NA,NA,0,22,22,13,NA,NA,NA,NA,"up",0,0.75861001,"2016_Sep_30_1104",60.00632353,"heterogeneity160929b",1,201,23,0.075,0.75861001,6.63148782452761,201,0.5,758.61001,-0.66405320108621
201,NA,"positive","orderly",NA,NA,NA,NA,0,24,24,14,NA,NA,NA,NA,"up",0,0.792772055,"2016_Sep_30_1104",60.00632353,"heterogeneity160929b",1,201,25,0.125,0.792772055,6.67553573390816,201,0.5,792.772055,-0.568108439949163
201,NA,"positive","talented",NA,NA,NA,NA,0,25,25,0,NA,NA,NA,NA,"up",0,0.990331173,"2016_Sep_30_1104",60.00632353,"heterogeneity160929b",1,201,26,0.15,0.990331173,6.89803940537172,201,0.5,990.331173,-0.0132598532513979
201,NA,"negative","messy",NA,NA,NA,NA,0,26,26,36,NA,NA,NA,NA,"up",0,0.993607998,"2016_Sep_30_1104",60.00632353,"heterogeneity160929b",1,201,27,0.175,0.993607998,6.90134276066373,201,-0.5,993.607998,-0.00405682714705006
201,NA,"positive","trusting",NA,NA,NA,NA,0,27,27,8,NA,NA,NA,NA,"up",0,1.192473888,"2016_Sep_30_1104",60.00632353,"heterogeneity160929b",1,201,28,0.2,1.192473888,7.08378532566741,201,0.5,1192.473888,0.554461853873248
201,NA,"positive","proud",NA,NA,NA,NA,0,28,28,11,NA,NA,NA,NA,"up",0,1.343604088,"2016_Sep_30_1104",60.00632353,"heterogeneity160929b",1,201,29,0.225,1.343604088,7.2031109003057,201,0.5,1343.604088,0.978913930427622
201,NA,"positive","disciplined",NA,NA,NA,NA,0,29,29,1,NA,NA,NA,NA,"up",0,0.774923801,"2016_Sep_30_1104",60.00632353,"heterogeneity160929b",1,201,30,0.25,0.774923801,6.65276470322917,201,0.5,774.923801,-0.618235604957679
201,NA,"negative","stubborn",NA,NA,NA,NA,0,30,30,39,NA,NA,NA,NA,"up",0,0.626119852,"2016_Sep_30_1104",60.00632353,"heterogeneity160929b",1,201,31,0.275,0.626119852,6.43954180964358,201,-0.5,626.119852,-1.03615436078902
201,NA,"negative","inhibited",NA,NA,NA,NA,0,31,31,25,NA,NA,NA,NA,"up",0,1.075531006,"2016_Sep_30_1104",60.00632353,"heterogeneity160929b",1,201,32,0.3,1.075531006,6.98056977767391,201,-0.5,1075.531006,0.226025518163025
201,NA,"negative","worrying",NA,NA,NA,NA,0,33,33,32,NA,NA,NA,NA,"up",0,0.809218168,"2016_Sep_30_1104",60.00632353,"heterogeneity160929b",1,201,34,0.35,0.809218168,6.6960685568458,201,-0.5,809.218168,-0.521919214935911
201,NA,"negative","cynical",NA,NA,NA,NA,0,34,34,37,NA,NA,NA,NA,"up",0,0.659615994,"2016_Sep_30_1104",60.00632353,"heterogeneity160929b",1,201,35,0.375,0.659615994,6.49165783842057,201,-0.5,659.615994,-0.942079801048738
201,NA,"positive","idealistic",NA,NA,NA,NA,0,36,36,3,NA,NA,NA,NA,"up",0,0.625544786,"2016_Sep_30_1104",60.00632353,"heterogeneity160929b",1,201,37,0.425,0.625544786,6.43862292766353,201,0.5,625.544786,-1.03776944472231
201,NA,"positive","inventive",NA,NA,NA,NA,0,39,39,18,NA,NA,NA,NA,"up",0,0.742246151,"2016_Sep_30_1104",60.00632353,"heterogeneity160929b",1,201,40,0.5,0.742246151,6.60968092804605,201,0.5,742.246151,-0.710011414156747
202,NA,"positive","disciplined",NA,NA,NA,NA,0,1,1,1,NA,NA,NA,NA,"up",0,0.72498703,"2016_Sep_30_1140",59.97534811,"heterogeneity160929b",1,202,2,-0.45,0.72498703,6.58615376503948,202,0.5,724.98703,-0.758483987791621
202,NA,"negative","irritable",NA,NA,NA,NA,0,2,2,27,NA,NA,NA,NA,"up",0,1.108602047,"2016_Sep_30_1140",59.97534811,"heterogeneity160929b",1,202,3,-0.425,1.108602047,7.01085508345703,202,-0.5,1108.602047,0.318906173559926
202,NA,"positive","trusting",NA,NA,NA,NA,0,4,4,8,NA,NA,NA,NA,"up",0,0.725842953,"2016_Sep_30_1140",59.97534811,"heterogeneity160929b",1,202,5,-0.375,0.725842953,6.58733367324283,202,0.5,725.842953,-0.756080111566216
202,NA,"positive","talented",NA,NA,NA,NA,0,5,5,0,NA,NA,NA,NA,"up",0,0.592477083,"2016_Sep_30_1140",59.97534811,"heterogeneity160929b",1,202,6,-0.35,0.592477083,6.38431219378024,202,0.5,592.477083,-1.13064072528194
202,NA,"negative","worrying",NA,NA,NA,NA,0,8,8,32,NA,NA,NA,NA,"up",0,0.808880091,"2016_Sep_30_1140",59.97534811,"heterogeneity160929b",1,202,9,-0.275,0.808880091,6.69565068728437,202,-0.5,808.880091,-0.522868710699731
202,NA,"positive","persistent",NA,NA,NA,NA,0,9,9,13,NA,NA,NA,NA,"up",0,0.757745981,"2016_Sep_30_1140",59.97534811,"heterogeneity160929b",1,202,10,-0.25,0.757745981,6.63034821206374,202,0.5,757.745981,-0.666479843168687
202,NA,"positive","courageous",NA,NA,NA,NA,0,10,10,15,NA,NA,NA,NA,"up",0,0.591758966,"2016_Sep_30_1140",59.97534811,"heterogeneity160929b",1,202,11,-0.225,0.591758966,6.38309939994809,202,0.5,591.758966,-1.13265757070304
202,NA,"negative","stubborn",NA,NA,NA,NA,0,12,12,39,NA,NA,NA,NA,"up",0,0.709203005,"2016_Sep_30_1140",59.97534811,"heterogeneity160929b",1,202,13,-0.175,0.709203005,6.56414181135972,202,-0.5,709.203005,-0.80281372590906
202,NA,"positive","proud",NA,NA,NA,NA,0,13,13,11,NA,NA,NA,NA,"up",0,0.576113939,"2016_Sep_30_1140",59.97534811,"heterogeneity160929b",1,202,14,-0.15,0.576113939,6.35630545189781,202,0.5,576.113939,-1.17659693026122
202,NA,"negative","tense",NA,NA,NA,NA,0,14,14,26,NA,NA,NA,NA,"up",0,0.876847982,"2016_Sep_30_1140",59.97534811,"heterogeneity160929b",1,202,15,-0.125,0.876847982,6.7763336386928,202,-0.5,876.847982,-0.331979580175379
202,NA,"positive","orderly",NA,NA,NA,NA,0,15,15,14,NA,NA,NA,NA,"up",0,0.792936087,"2016_Sep_30_1140",59.97534811,"heterogeneity160929b",1,202,16,-0.1,0.792936087,6.67574262191767,202,0.5,792.936087,-0.567647752918899
202,NA,"positive","tidy",NA,NA,NA,NA,0,16,16,4,NA,NA,NA,NA,"up",0,1.444204092,"2016_Sep_30_1140",59.97534811,"heterogeneity160929b",1,202,17,-0.075,1.444204092,7.27531364741564,202,0.5,1444.204092,1.26145097860978
202,NA,"positive","confident",NA,NA,NA,NA,0,17,17,7,NA,NA,NA,NA,"up",0,0.575605869,"2016_Sep_30_1140",59.97534811,"heterogeneity160929b",1,202,18,-0.05,0.575605869,6.35542317127812,202,0.5,575.605869,-1.17802385463857
202,NA,"negative","moody",NA,NA,NA,NA,0,18,18,30,NA,NA,NA,NA,"up",0,0.893532038,"2016_Sep_30_1140",59.97534811,"heterogeneity160929b",1,202,19,-0.025,0.893532038,6.79518219069979,202,-0.5,893.532038,-0.285122087665282
202,NA,"negative","boring",NA,NA,NA,NA,0,20,20,20,NA,NA,NA,NA,"up",0,1.109902859,"2016_Sep_30_1140",59.97534811,"heterogeneity160929b",1,202,21,0.025,1.109902859,7.01202777606236,202,-0.5,1109.902859,0.322559529107705
202,NA,"positive","ambitious",NA,NA,NA,NA,0,21,21,10,NA,NA,NA,NA,"up",0,0.775460005,"2016_Sep_30_1140",59.97534811,"heterogeneity160929b",1,202,22,0.05,0.775460005,6.65345640810806,202,0.5,775.460005,-0.61672966569963
202,NA,"positive","enthusiastic",NA,NA,NA,NA,0,24,24,16,NA,NA,NA,NA,"up",0,1.324153185,"2016_Sep_30_1140",59.97534811,"heterogeneity160929b",1,202,25,0.125,1.324153185,7.18852842844487,202,0.5,1324.153185,0.924285694845272
202,NA,"positive","wise",NA,NA,NA,NA,0,25,25,19,NA,NA,NA,NA,"up",0,1.308738947,"2016_Sep_30_1140",59.97534811,"heterogeneity160929b",1,202,26,0.15,1.308738947,7.17681931668586,202,0.5,1308.738947,0.880994510637196
202,NA,"positive","outgoing",NA,NA,NA,NA,0,27,27,17,NA,NA,NA,NA,"up",0,0.608772993,"2016_Sep_30_1140",59.97534811,"heterogeneity160929b",1,202,28,0.2,0.608772993,6.41144544452539,202,0.5,608.772993,-1.08487334828619
202,NA,"positive","neat",NA,NA,NA,NA,0,28,28,5,NA,NA,NA,NA,"up",0,0.611086845,"2016_Sep_30_1140",59.97534811,"heterogeneity160929b",1,202,29,0.225,0.611086845,6.41523908491413,202,0.5,611.086845,-1.07837485039339
202,NA,"negative","forgetful",NA,NA,NA,NA,0,30,30,31,NA,NA,NA,NA,"up",0,0.992635012,"2016_Sep_30_1140",59.97534811,"heterogeneity160929b",1,202,31,0.275,0.992635012,6.90036303555161,202,-0.5,992.635012,-0.00678947706188054
202,NA,"negative","anxious",NA,NA,NA,NA,0,32,32,35,NA,NA,NA,NA,"up",0,0.926002026,"2016_Sep_30_1140",59.97534811,"heterogeneity160929b",1,202,33,0.325,0.926002026,6.83087642254875,202,-0.5,926.002026,-0.193929501191529
202,NA,"positive","tender",NA,NA,NA,NA,0,33,33,6,NA,NA,NA,NA,"up",0,0.792806864,"2016_Sep_30_1140",59.97534811,"heterogeneity160929b",1,202,34,0.35,0.792806864,6.67557964089959,202,0.5,792.806864,-0.568010678202453
202,NA,"positive","idealistic",NA,NA,NA,NA,0,34,34,3,NA,NA,NA,NA,"up",0,0.758482933,"2016_Sep_30_1140",59.97534811,"heterogeneity160929b",1,202,35,0.375,0.758482933,6.63132029754664,202,0.5,758.482933,-0.664410099287445
202,NA,"positive","brilliant",NA,NA,NA,NA,0,35,35,12,NA,NA,NA,NA,"up",0,0.575559855,"2016_Sep_30_1140",59.97534811,"heterogeneity160929b",1,202,36,0.4,0.575559855,6.35534322796663,202,0.5,575.559855,-1.17815308584353
202,NA,"negative","cynical",NA,NA,NA,NA,0,36,36,37,NA,NA,NA,NA,"up",0,0.393021107,"2016_Sep_30_1140",59.97534811,"heterogeneity160929b",1,202,37,0.425,0.393021107,5.97386331780621,202,-0.5,393.021107,-1.69081667419473
202,NA,"negative","impulsive",NA,NA,NA,NA,0,39,39,21,NA,NA,NA,NA,"up",0,1.642158031,"2016_Sep_30_1140",59.97534811,"heterogeneity160929b",1,202,40,0.5,1.642158031,7.40376652837766,202,-0.5,1642.158031,1.81740842768791
204,NA,"positive","artistic",NA,NA,NA,NA,0,0,0,9,NA,NA,NA,NA,"up",0,0.97615695,"2016_Sep_30_1202",60.00452076,"heterogeneity160929b",1,204,1,-0.475,0.97615695,6.88362338291087,204,0.5,976.15695,-0.053068431456778
204,NA,"positive","neat",NA,NA,NA,NA,0,2,2,5,NA,NA,NA,NA,"up",0,0.594193935,"2016_Sep_30_1202",60.00452076,"heterogeneity160929b",1,204,3,-0.425,0.594193935,6.38720575597541,204,0.5,594.193935,-1.12581891338375
204,NA,"positive","thrifty",NA,NA,NA,NA,0,4,4,2,NA,NA,NA,NA,"up",0,0.809697151,"2016_Sep_30_1202",60.00452076,"heterogeneity160929b",1,204,5,-0.375,0.809697151,6.69666029009875,204,0.5,809.697151,-0.520573981958093
204,NA,"positive","ambitious",NA,NA,NA,NA,0,5,5,10,NA,NA,NA,NA,"up",0,0.592213154,"2016_Sep_30_1202",60.00452076,"heterogeneity160929b",1,204,6,-0.35,0.592213154,6.38386662751132,204,0.5,592.213154,-1.13138197496012
204,NA,"positive","trusting",NA,NA,NA,NA,0,6,6,8,NA,NA,NA,NA,"up",0,0.809190035,"2016_Sep_30_1202",60.00452076,"heterogeneity160929b",1,204,7,-0.325,0.809190035,6.69603379058603,204,0.5,809.190035,-0.521998227008082
204,NA,"positive","proud",NA,NA,NA,NA,0,8,8,11,NA,NA,NA,NA,"up",0,0.943104982,"2016_Sep_30_1202",60.00452076,"heterogeneity160929b",1,204,9,-0.275,0.943104982,6.84917760411462,204,0.5,943.104982,-0.145895519965949
204,NA,"positive","courageous",NA,NA,NA,NA,0,10,10,15,NA,NA,NA,NA,"up",0,1.091324806,"2016_Sep_30_1202",60.00452076,"heterogeneity160929b",1,204,11,-0.225,1.091324806,6.99514765554888,204,0.5,1091.324806,0.270382709556171
204,NA,"positive","tender",NA,NA,NA,NA,0,12,12,6,NA,NA,NA,NA,"up",0,0.709933996,"2016_Sep_30_1202",60.00452076,"heterogeneity160929b",1,204,13,-0.175,0.709933996,6.56517200233372,204,0.5,709.933996,-0.800760723611091
204,NA,"positive","brilliant",NA,NA,NA,NA,0,22,22,12,NA,NA,NA,NA,"up",0,0.858991861,"2016_Sep_30_1202",60.00452076,"heterogeneity160929b",1,204,23,0.075,0.858991861,6.75575944696847,204,0.5,858.991861,-0.382128839804865
204,NA,"positive","orderly",NA,NA,NA,NA,0,24,24,14,NA,NA,NA,NA,"up",0,0.792859077,"2016_Sep_30_1202",60.00452076,"heterogeneity160929b",1,204,25,0.125,0.792859077,6.67564549714165,204,0.5,792.859077,-0.567864036986646
204,NA,"positive","persistent",NA,NA,NA,NA,0,26,26,13,NA,NA,NA,NA,"up",0,0.756456137,"2016_Sep_30_1202",60.00452076,"heterogeneity160929b",1,204,27,0.175,0.756456137,6.6286445500537,204,0.5,756.456137,-0.670102394877288
204,NA,"negative","cynical",NA,NA,NA,NA,0,27,27,37,NA,NA,NA,NA,"up",0,0.909418821,"2016_Sep_30_1202",60.00452076,"heterogeneity160929b",1,204,28,0.2,0.909418821,6.81280573724009,204,-0.5,909.418821,-0.240503751726345
204,NA,"negative","stubborn",NA,NA,NA,NA,0,29,29,39,NA,NA,NA,NA,"up",0,0.775966883,"2016_Sep_30_1202",60.00452076,"heterogeneity160929b",1,204,30,0.25,0.775966883,6.65410984272616,204,-0.5,775.966883,-0.615306089077223
204,NA,"positive","wise",NA,NA,NA,NA,0,31,31,19,NA,NA,NA,NA,"up",0,0.561015844,"2016_Sep_30_1202",60.00452076,"heterogeneity160929b",1,204,32,0.3,0.561015844,6.32974914754813,204,0.5,561.015844,-1.21900022076679
204,NA,"positive","disciplined",NA,NA,NA,NA,0,33,33,1,NA,NA,NA,NA,"up",0,0.624965906,"2016_Sep_30_1202",60.00452076,"heterogeneity160929b",1,204,34,0.35,0.624965906,6.43769709784847,204,0.5,624.965906,-1.03939524034804
204,NA,"positive","tidy",NA,NA,NA,NA,0,34,34,4,NA,NA,NA,NA,"up",0,0.727607012,"2016_Sep_30_1202",60.00452076,"heterogeneity160929b",1,204,35,0.375,0.727607012,6.58976108376081,204,0.5,727.607012,-0.7511257178996
204,NA,"negative","worrying",NA,NA,NA,NA,0,35,35,32,NA,NA,NA,NA,"up",0,0.909124851,"2016_Sep_30_1202",60.00452076,"heterogeneity160929b",1,204,36,0.4,0.909124851,6.81248243458084,204,-0.5,909.124851,-0.241329372131431
204,NA,"positive","talented",NA,NA,NA,NA,0,36,36,0,NA,NA,NA,NA,"up",0,0.642563105,"2016_Sep_30_1202",60.00452076,"heterogeneity160929b",1,204,37,0.425,0.642563105,6.46546502984515,204,0.5,642.563105,-0.98997316814083
204,NA,"positive","confident",NA,NA,NA,NA,0,37,37,7,NA,NA,NA,NA,"up",0,1.04205513,"2016_Sep_30_1202",60.00452076,"heterogeneity160929b",1,204,38,0.45,1.04205513,6.94895012878322,204,0.5,1042.05513,0.132007875873947
204,NA,"positive","idealistic",NA,NA,NA,NA,0,39,39,3,NA,NA,NA,NA,"up",0,0.674777985,"2016_Sep_30_1202",60.00452076,"heterogeneity160929b",1,204,40,0.5,0.674777985,6.5143837256583,204,0.5,674.777985,-0.899497057396915
205,NA,"positive","courageous",NA,NA,NA,NA,0,0,0,15,NA,NA,NA,NA,"up",0,0.591831923,"2016_Sep_30_1215",59.98444007,"heterogeneity160929b",1,205,1,-0.475,0.591831923,6.38322268072149,205,0.5,591.831923,-1.13245266956383
205,NA,"positive","persistent",NA,NA,NA,NA,0,1,1,13,NA,NA,NA,NA,"up",0,0.991534948,"2016_Sep_30_1215",59.98444007,"heterogeneity160929b",1,205,2,-0.45,0.991534948,6.89925419494331,205,0.5,991.534948,-0.0098790279864657
205,NA,"positive","idealistic",NA,NA,NA,NA,0,3,3,3,NA,NA,NA,NA,"up",0,0.808661938,"2016_Sep_30_1215",59.98444007,"heterogeneity160929b",1,205,4,-0.4,0.808661938,6.69538095333322,205,0.5,808.661938,-0.523481397600539
205,NA,"negative","messy",NA,NA,NA,NA,0,4,4,36,NA,NA,NA,NA,"up",0,0.910298824,"2016_Sep_30_1215",59.98444007,"heterogeneity160929b",1,205,5,-0.375,0.910298824,6.81377292362861,205,-0.5,910.298824,-0.238032246357305
205,NA,"positive","wise",NA,NA,NA,NA,0,7,7,19,NA,NA,NA,NA,"up",0,0.693953991,"2016_Sep_30_1215",59.98444007,"heterogeneity160929b",1,205,8,-0.3,0.693953991,6.54240566292012,205,0.5,693.953991,-0.84564087533192
205,NA,"positive","enthusiastic",NA,NA,NA,NA,0,8,8,16,NA,NA,NA,NA,"up",0,0.624419928,"2016_Sep_30_1215",59.98444007,"heterogeneity160929b",1,205,9,-0.275,0.624419928,6.43682310357081,205,0.5,624.419928,-1.04092863007328
205,NA,"positive","proud",NA,NA,NA,NA,0,9,9,11,NA,NA,NA,NA,"up",0,0.493678093,"2016_Sep_30_1215",59.98444007,"heterogeneity160929b",1,205,10,-0.25,0.493678093,6.20188367117923,205,0.5,493.678093,-1.40811959096845
205,NA,"positive","trusting",NA,NA,NA,NA,0,11,11,8,NA,NA,NA,NA,"up",0,0.591995955,"2016_Sep_30_1215",59.98444007,"heterogeneity160929b",1,205,12,-0.2,0.591995955,6.38349980209039,205,0.5,591.995955,-1.13199198253356
205,NA,"positive","brilliant",NA,NA,NA,NA,0,13,13,12,NA,NA,NA,NA,"up",0,0.558450937,"2016_Sep_30_1215",59.98444007,"heterogeneity160929b",1,205,14,-0.15,0.558450937,6.32516676684379,205,0.5,558.450937,-1.2262038114609
205,NA,"positive","artistic",NA,NA,NA,NA,0,14,14,9,NA,NA,NA,NA,"up",0,0.659235001,"2016_Sep_30_1215",59.98444007,"heterogeneity160929b",1,205,15,-0.125,0.659235001,6.49108007336289,205,0.5,659.235001,-0.943149827224861
205,NA,"positive","inventive",NA,NA,NA,NA,0,15,15,18,NA,NA,NA,NA,"up",0,0.608848095,"2016_Sep_30_1215",59.98444007,"heterogeneity160929b",1,205,16,-0.1,0.608848095,6.41156880309865,205,0.5,608.848095,-1.08466242287318
205,NA,"positive","ambitious",NA,NA,NA,NA,0,17,17,10,NA,NA,NA,NA,"up",0,0.658960104,"2016_Sep_30_1215",59.98444007,"heterogeneity160929b",1,205,18,-0.05,0.658960104,6.49066299245743,205,0.5,658.960104,-0.943921880742216
205,NA,"negative","anxious",NA,NA,NA,NA,0,18,18,35,NA,NA,NA,NA,"up",0,0.959417105,"2016_Sep_30_1215",59.98444007,"heterogeneity160929b",1,205,19,-0.025,0.959417105,6.8663259177604,205,-0.5,959.417105,-0.100082608447534
205,NA,"positive","talented",NA,NA,NA,NA,0,20,20,0,NA,NA,NA,NA,"up",0,0.608618021,"2016_Sep_30_1215",59.98444007,"heterogeneity160929b",1,205,21,0.025,0.608618021,6.41119084760615,205,0.5,608.618021,-1.08530859013202
205,NA,"negative","stubborn",NA,NA,NA,NA,0,22,22,39,NA,NA,NA,NA,"up",0,0.825910091,"2016_Sep_30_1215",59.98444007,"heterogeneity160929b",1,205,23,0.075,0.825910091,6.71648591892825,205,-0.5,825.910091,-0.475039627804843
205,NA,"positive","confident",NA,NA,NA,NA,0,25,25,7,NA,NA,NA,NA,"up",0,0.673360825,"2016_Sep_30_1215",59.98444007,"heterogeneity160929b",1,205,26,0.15,0.673360825,6.51228133010157,205,0.5,673.360825,-0.903477178542853
205,NA,"positive","outgoing",NA,NA,NA,NA,0,29,29,17,NA,NA,NA,NA,"up",0,0.625952959,"2016_Sep_30_1215",59.98444007,"heterogeneity160929b",1,205,30,0.25,0.625952959,6.43927522290913,205,0.5,625.952959,-1.03662308299287
205,NA,"negative","impulsive",NA,NA,NA,NA,0,30,30,21,NA,NA,NA,NA,"up",0,0.608275175,"2016_Sep_30_1215",59.98444007,"heterogeneity160929b",1,205,31,0.275,0.608275175,6.41062737003852,205,-0.5,608.275175,-1.08627147972416
205,NA,"negative","cynical",NA,NA,NA,NA,0,37,37,37,NA,NA,NA,NA,"up",0,1.476138115,"2016_Sep_30_1215",59.98444007,"heterogeneity160929b",1,205,38,0.45,1.476138115,7.2971845746309,205,-0.5,1476.138115,1.35113829706158
206,NA,"positive","inventive",NA,NA,NA,NA,0,0,0,18,NA,NA,NA,NA,"up",0,1.692242146,"2016_Sep_30_1233",60.01070213,"heterogeneity160929b",1,206,1,-0.475,1.692242146,7.43380964221973,206,0.5,1692.242146,1.9580706289828
206,NA,"positive","persistent",NA,NA,NA,NA,0,1,1,13,NA,NA,NA,NA,"up",0,1.107909918,"2016_Sep_30_1233",60.01070213,"heterogeneity160929b",1,206,2,-0.45,1.107909918,7.01023056255804,206,0.5,1107.909918,0.316962315937204
206,NA,"positive","wise",NA,NA,NA,NA,0,2,2,19,NA,NA,NA,NA,"up",0,0.777783155,"2016_Sep_30_1233",60.01070213,"heterogeneity160929b",1,206,3,-0.425,0.777783155,6.65644776424876,206,0.5,777.783155,-0.6102050541948
206,NA,"positive","proud",NA,NA,NA,NA,0,3,3,11,NA,NA,NA,NA,"up",0,0.543775082,"2016_Sep_30_1233",60.01070213,"heterogeneity160929b",1,206,4,-0.4,0.543775082,6.29853570915513,206,0.5,543.775082,-1.26742123279668
206,NA,"negative","timid",NA,NA,NA,NA,0,4,4,28,NA,NA,NA,NA,"up",0,1.010191917,"2016_Sep_30_1233",60.01070213,"heterogeneity160929b",1,206,5,-0.375,1.010191917,6.91789560861608,206,-0.5,1010.191917,0.0425194286705135
206,NA,"positive","confident",NA,NA,NA,NA,0,5,5,7,NA,NA,NA,NA,"up",0,0.758888006,"2016_Sep_30_1233",60.01070213,"heterogeneity160929b",1,206,6,-0.35,0.758888006,6.63185421183116,206,0.5,758.888006,-0.663272443967687
206,NA,"negative","tense",NA,NA,NA,NA,0,7,7,26,NA,NA,NA,NA,"up",0,1.226480961,"2016_Sep_30_1233",60.01070213,"heterogeneity160929b",1,206,8,-0.3,1.226480961,7.11190434054504,206,-0.5,1226.480961,0.64997137316447
206,NA,"positive","idealistic",NA,NA,NA,NA,0,8,8,3,NA,NA,NA,NA,"up",0,0.991919041,"2016_Sep_30_1233",60.01070213,"heterogeneity160929b",1,206,9,-0.275,0.991919041,6.89964149205928,206,0.5,991.919041,-0.00880029540065566
206,NA,"positive","orderly",NA,NA,NA,NA,0,9,9,14,NA,NA,NA,NA,"up",0,1.992902994,"2016_Sep_30_1233",60.01070213,"heterogeneity160929b",1,206,10,-0.25,1.992902994,7.59734764567146,206,0.5,1992.902994,2.80248240950185
206,NA,"positive","disciplined",NA,NA,NA,NA,0,10,10,1,NA,NA,NA,NA,"up",0,0.958047867,"2016_Sep_30_1233",60.01070213,"heterogeneity160929b",1,206,11,-0.225,0.958047867,6.86489774227586,206,0.5,958.047867,-0.103928139733784
206,NA,"positive","tidy",NA,NA,NA,NA,0,17,17,4,NA,NA,NA,NA,"up",0,1.260746002,"2016_Sep_30_1233",60.01070213,"heterogeneity160929b",1,206,18,-0.05,1.260746002,7.13945888982351,206,0.5,1260.746002,0.746205400550596
206,NA,"positive","enthusiastic",NA,NA,NA,NA,0,18,18,16,NA,NA,NA,NA,"up",0,2.057298899,"2016_Sep_30_1233",60.01070213,"heterogeneity160929b",1,206,19,-0.025,2.057298899,7.62914918731259,206,0.5,2057.298899,2.98333954857034
206,NA,"positive","ambitious",NA,NA,NA,NA,0,20,20,10,NA,NA,NA,NA,"up",0,0.958747864,"2016_Sep_30_1233",60.01070213,"heterogeneity160929b",1,206,21,0.025,0.958747864,6.86562812477807,206,0.5,958.747864,-0.101962184681572
206,NA,"negative","stubborn",NA,NA,NA,NA,0,21,21,39,NA,NA,NA,NA,"up",0,1.02580905,"2016_Sep_30_1233",60.01070213,"heterogeneity160929b",1,206,22,0.05,1.02580905,6.93323689729878,206,-0.5,1025.80905,0.0863804473926207
206,NA,"positive","artistic",NA,NA,NA,NA,0,22,22,9,NA,NA,NA,NA,"up",0,1.325829983,"2016_Sep_30_1233",60.01070213,"heterogeneity160929b",1,206,23,0.075,1.325829983,7.18979394457647,206,0.5,1325.829983,0.928995014313268
206,NA,"negative","cynical",NA,NA,NA,NA,0,24,24,37,NA,NA,NA,NA,"up",0,1.142789125,"2016_Sep_30_1233",60.01070213,"heterogeneity160929b",1,206,25,0.125,1.142789125,7.04122715421053,206,-0.5,1142.789125,0.414921240359456
206,NA,"negative","fearful",NA,NA,NA,NA,0,25,25,24,NA,NA,NA,NA,"up",0,0.957433939,"2016_Sep_30_1233",60.01070213,"heterogeneity160929b",1,206,26,0.15,0.957433939,6.86425672546317,206,-0.5,957.433939,-0.105652368342327
206,NA,"negative","impulsive",NA,NA,NA,NA,0,26,26,21,NA,NA,NA,NA,"up",0,0.808756113,"2016_Sep_30_1233",60.01070213,"heterogeneity160929b",1,206,27,0.175,0.808756113,6.6954974043646,206,-0.5,808.756113,-0.523216905299798
206,NA,"negative","withdrawn",NA,NA,NA,NA,0,27,27,38,NA,NA,NA,NA,"up",0,1.208849907,"2016_Sep_30_1233",60.01070213,"heterogeneity160929b",1,206,28,0.2,1.208849907,7.09742469650601,206,-0.5,1208.849907,0.600454218537914
206,NA,"positive","neat",NA,NA,NA,NA,0,28,28,5,NA,NA,NA,NA,"up",0,0.644442081,"2016_Sep_30_1233",60.01070213,"heterogeneity160929b",1,206,29,0.225,0.644442081,6.46838495177777,206,0.5,644.442081,-0.984696027867107
206,NA,"negative","childish",NA,NA,NA,NA,0,29,29,29,NA,NA,NA,NA,"up",0,1.575773001,"2016_Sep_30_1233",60.01070213,"heterogeneity160929b",1,206,30,0.25,1.575773001,7.36250122514533,206,-0.5,1575.773001,1.63096479275839
206,NA,"negative","anxious",NA,NA,NA,NA,0,30,30,35,NA,NA,NA,NA,"up",0,0.992838144,"2016_Sep_30_1233",60.01070213,"heterogeneity160929b",1,206,31,0.275,0.992838144,6.90056765378087,206,-0.5,992.838144,-0.00621897692878576
206,NA,"positive","courageous",NA,NA,NA,NA,0,31,31,15,NA,NA,NA,NA,"up",0,1.99169302,"2016_Sep_30_1233",60.01070213,"heterogeneity160929b",1,206,32,0.3,1.99169302,7.59674031984323,206,0.5,1991.69302,2.79908417422606
206,NA,"negative","insecure",NA,NA,NA,NA,0,32,32,22,NA,NA,NA,NA,"up",0,1.075459003,"2016_Sep_30_1233",60.01070213,"heterogeneity160929b",1,206,33,0.325,1.075459003,6.98050282896682,206,-0.5,1075.459003,0.225823296351182
206,NA,"positive","trusting",NA,NA,NA,NA,0,36,36,8,NA,NA,NA,NA,"up",0,0.992624998,"2016_Sep_30_1233",60.01070213,"heterogeneity160929b",1,206,37,0.425,0.992624998,6.90035294720052,206,0.5,992.624998,-0.00681760157368968
206,NA,"positive","outgoing",NA,NA,NA,NA,0,39,39,17,NA,NA,NA,NA,"up",0,1.775929213,"2016_Sep_30_1233",60.01070213,"heterogeneity160929b",1,206,40,0.5,1.775929213,7.48207906521274,206,0.5,1775.929213,2.1931073679595
207,NA,"negative","tense",NA,NA,NA,NA,0,0,0,26,NA,NA,NA,NA,"up",0,1.343882084,"2016_Sep_30_1245",60.0251303,"heterogeneity160929b",1,207,1,-0.475,1.343882084,7.2033177821151,207,-0.5,1343.882084,0.979694687546145
207,NA,"positive","orderly",NA,NA,NA,NA,0,1,1,14,NA,NA,NA,NA,"up",0,0.74296999,"2016_Sep_30_1245",60.0251303,"heterogeneity160929b",1,207,2,-0.45,0.74296999,6.61065565359249,207,0.5,742.96999,-0.707978498388482
207,NA,"negative","cynical",NA,NA,NA,NA,0,3,3,37,NA,NA,NA,NA,"up",0,0.892853022,"2016_Sep_30_1245",60.0251303,"heterogeneity160929b",1,207,4,-0.4,0.892853022,6.79442197830448,207,-0.5,892.853022,-0.287029117175027
207,NA,"positive","disciplined",NA,NA,NA,NA,0,4,4,1,NA,NA,NA,NA,"up",0,1.308094025,"2016_Sep_30_1245",60.0251303,"heterogeneity160929b",1,207,5,-0.375,1.308094025,7.17632641399015,207,0.5,1308.094025,0.879183234782895
207,NA,"positive","trusting",NA,NA,NA,NA,0,10,10,8,NA,NA,NA,NA,"up",0,1.425610065,"2016_Sep_30_1245",60.0251303,"heterogeneity160929b",1,207,11,-0.225,1.425610065,7.26235511687681,207,0.5,1425.610065,1.20922929577168
207,NA,"negative","inhibited",NA,NA,NA,NA,0,13,13,25,NA,NA,NA,NA,"up",0,1.025372982,"2016_Sep_30_1245",60.0251303,"heterogeneity160929b",1,207,14,-0.15,1.025372982,6.93281171026051,207,-0.5,1025.372982,0.0851557420185863
207,NA,"negative","childish",NA,NA,NA,NA,0,15,15,29,NA,NA,NA,NA,"up",0,1.009133101,"2016_Sep_30_1245",60.0251303,"heterogeneity160929b",1,207,16,-0.1,1.009133101,6.91684692542977,207,-0.5,1009.133101,0.0395457235481157
207,NA,"positive","tender",NA,NA,NA,NA,0,16,16,6,NA,NA,NA,NA,"up",0,1.209666967,"2016_Sep_30_1245",60.0251303,"heterogeneity160929b",1,207,17,-0.075,1.209666967,7.09810036682269,207,0.5,1209.666967,0.602748947279552
207,NA,"negative","stubborn",NA,NA,NA,NA,0,17,17,39,NA,NA,NA,NA,"up",0,1.375742912,"2016_Sep_30_1245",60.0251303,"heterogeneity160929b",1,207,18,-0.05,1.375742912,7.22674916382774,207,-0.5,1375.742912,1.06917643643116
207,NA,"positive","inventive",NA,NA,NA,NA,0,19,19,18,NA,NA,NA,NA,"up",0,1.558882952,"2016_Sep_30_1245",60.0251303,"heterogeneity160929b",1,207,20,0,1.558882952,7.35172478734249,207,0.5,1558.882952,1.58352876494162
207,NA,"negative","forgetful",NA,NA,NA,NA,0,20,20,31,NA,NA,NA,NA,"up",0,0.975054979,"2016_Sep_30_1245",60.0251303,"heterogeneity160929b",1,207,21,0.025,0.975054979,6.88249385812601,207,-0.5,975.054979,-0.0561633382275802
207,NA,"positive","neat",NA,NA,NA,NA,0,21,21,5,NA,NA,NA,NA,"up",0,1.094177008,"2016_Sep_30_1245",60.0251303,"heterogeneity160929b",1,207,22,0.05,1.094177008,6.997757768797,207,0.5,1094.177008,0.278393173789345
207,NA,"positive","proud",NA,NA,NA,NA,0,22,22,11,NA,NA,NA,NA,"up",0,1.393516064,"2016_Sep_30_1245",60.0251303,"heterogeneity160929b",1,207,23,0.075,1.393516064,7.23958537466324,207,0.5,1393.516064,1.11909267602666
207,NA,"negative","boring",NA,NA,NA,NA,0,25,25,20,NA,NA,NA,NA,"up",0,1.42624712,"2016_Sep_30_1245",60.0251303,"heterogeneity160929b",1,207,26,0.15,1.42624712,7.26280188189291,207,-0.5,1426.24712,1.21101847700501
207,NA,"negative","antisocial",NA,NA,NA,NA,0,26,26,33,NA,NA,NA,NA,"up",0,0.806234837,"2016_Sep_30_1245",60.0251303,"heterogeneity160929b",1,207,27,0.175,0.806234837,6.69237506111143,207,-0.5,806.234837,-0.530297957490338
207,NA,"negative","timid",NA,NA,NA,NA,0,27,27,28,NA,NA,NA,NA,"up",0,0.827190876,"2016_Sep_30_1245",60.0251303,"heterogeneity160929b",1,207,28,0.2,0.827190876,6.71803547371268,207,-0.5,827.190876,-0.471442518472164
207,NA,"positive","wise",NA,NA,NA,NA,0,30,30,19,NA,NA,NA,NA,"up",0,1.32770896,"2016_Sep_30_1245",60.0251303,"heterogeneity160929b",1,207,31,0.275,1.32770896,7.19121014939155,207,0.5,1327.70896,0.934272157395511
207,NA,"positive","ambitious",NA,NA,NA,NA,0,34,34,10,NA,NA,NA,NA,"up",0,1.042338848,"2016_Sep_30_1245",60.0251303,"heterogeneity160929b",1,207,35,0.375,1.042338848,6.94922235946969,207,0.5,1042.338848,0.132804703339641
207,NA,"negative","insecure",NA,NA,NA,NA,0,37,37,22,NA,NA,NA,NA,"up",0,1.026082993,"2016_Sep_30_1245",60.0251303,"heterogeneity160929b",1,207,38,0.45,1.026082993,6.93350391232285,207,-0.5,1026.082993,0.0871498215826076
207,NA,"negative","clumsy",NA,NA,NA,NA,0,38,38,23,NA,NA,NA,NA,"up",0,1.393231869,"2016_Sep_30_1245",60.0251303,"heterogeneity160929b",1,207,39,0.475,1.393231869,7.23938141290723,207,-0.5,1393.231869,1.11829450889728
207,NA,"negative","withdrawn",NA,NA,NA,NA,0,39,39,38,NA,NA,NA,NA,"up",0,0.775135994,"2016_Sep_30_1245",60.0251303,"heterogeneity160929b",1,207,40,0.5,0.775135994,6.65303849008824,207,-0.5,775.135994,-0.617639656831624
208,NA,"positive","ambitious",NA,NA,NA,NA,0,0,0,10,NA,NA,NA,NA,"up",0,0.692425966,"2016_Sep_30_1301",60.0114749,"heterogeneity160929b",1,208,1,-0.475,0.692425966,6.54020132404314,208,0.5,692.425966,-0.849932362964948
208,NA,"positive","confident",NA,NA,NA,NA,0,2,2,7,NA,NA,NA,NA,"up",0,0.675431013,"2016_Sep_30_1301",60.0114749,"heterogeneity160929b",1,208,3,-0.425,0.675431013,6.5153510248718,208,0.5,675.431013,-0.897663015685542
208,NA,"positive","orderly",NA,NA,NA,NA,0,3,3,14,NA,NA,NA,NA,"up",0,0.726346016,"2016_Sep_30_1301",60.0114749,"heterogeneity160929b",1,208,4,-0.4,0.726346016,6.58802650734481,208,0.5,726.346016,-0.754667249444763
208,NA,"positive","courageous",NA,NA,NA,NA,0,5,5,15,NA,NA,NA,NA,"up",0,0.858274221,"2016_Sep_30_1301",60.0114749,"heterogeneity160929b",1,208,6,-0.35,0.858274221,6.7549236533203,208,0.5,858.274221,-0.384144345562275
208,NA,"positive","wise",NA,NA,NA,NA,0,6,6,19,NA,NA,NA,NA,"up",0,0.57754302,"2016_Sep_30_1301",60.0114749,"heterogeneity160929b",1,208,7,-0.325,0.57754302,6.35878293312794,208,0.5,577.54302,-1.17258332875725
208,NA,"positive","brilliant",NA,NA,NA,NA,0,8,8,12,NA,NA,NA,NA,"up",0,0.675653934,"2016_Sep_30_1301",60.0114749,"heterogeneity160929b",1,208,9,-0.275,0.675653934,6.5156810130084,208,0.5,675.653934,-0.897036937764931
208,NA,"positive","trusting",NA,NA,NA,NA,0,9,9,8,NA,NA,NA,NA,"up",0,0.609398842,"2016_Sep_30_1301",60.0114749,"heterogeneity160929b",1,208,10,-0.25,0.609398842,6.41247296632007,208,0.5,609.398842,-1.08311563931962
208,NA,"negative","inhibited",NA,NA,NA,NA,0,11,11,25,NA,NA,NA,NA,"up",0,1.508887053,"2016_Sep_30_1301",60.0114749,"heterogeneity160929b",1,208,12,-0.2,1.508887053,7.31912760705997,208,-0.5,1508.887053,1.44311431998123
208,NA,"positive","outgoing",NA,NA,NA,NA,0,13,13,17,NA,NA,NA,NA,"up",0,0.808970928,"2016_Sep_30_1301",60.0114749,"heterogeneity160929b",1,208,14,-0.15,0.808970928,6.69576298068967,208,0.5,808.970928,-0.522613593236259
208,NA,"negative","cynical",NA,NA,NA,NA,0,14,14,37,NA,NA,NA,NA,"up",0,1.042997122,"2016_Sep_30_1301",60.0114749,"heterogeneity160929b",1,208,15,-0.125,1.042997122,6.94985369564893,208,-0.5,1042.997122,0.134653478543021
208,NA,"negative","insecure",NA,NA,NA,NA,0,15,15,22,NA,NA,NA,NA,"up",0,1.808999062,"2016_Sep_30_1301",60.0114749,"heterogeneity160929b",1,208,16,-0.1,1.808999062,7.50052896687664,208,-0.5,1808.999062,2.28598467560145
208,NA,"negative","childish",NA,NA,NA,NA,0,17,17,29,NA,NA,NA,NA,"up",0,1.559073925,"2016_Sep_30_1301",60.0114749,"heterogeneity160929b",1,208,18,-0.05,1.559073925,7.35184728615037,208,-0.5,1559.073925,1.5840651162891
208,NA,"positive","disciplined",NA,NA,NA,NA,0,20,20,1,NA,NA,NA,NA,"up",0,0.691537142,"2016_Sep_30_1301",60.0114749,"heterogeneity160929b",1,208,21,0.025,0.691537142,6.53891686188217,208,0.5,691.537142,-0.852428642282327
208,NA,"negative","clumsy",NA,NA,NA,NA,0,21,21,23,NA,NA,NA,NA,"up",0,1.343027115,"2016_Sep_30_1301",60.0114749,"heterogeneity160929b",1,208,22,0.05,1.343027115,7.20268138619284,208,-0.5,1343.027115,0.977293490648109
208,NA,"positive","proud",NA,NA,NA,NA,0,22,22,11,NA,NA,NA,NA,"up",0,0.71031785,"2016_Sep_30_1301",60.0114749,"heterogeneity160929b",1,208,23,0.075,0.71031785,6.56571254591467,208,0.5,710.31785,-0.799682662261382
208,NA,"negative","withdrawn",NA,NA,NA,NA,0,25,25,38,NA,NA,NA,NA,"up",0,1.473322153,"2016_Sep_30_1301",60.0114749,"heterogeneity160929b",1,208,26,0.15,1.473322153,7.2952750979133,208,-0.5,1473.322153,1.34322961356617
208,NA,"negative","stubborn",NA,NA,NA,NA,0,26,26,39,NA,NA,NA,NA,"up",0,1.342444897,"2016_Sep_30_1301",60.0114749,"heterogeneity160929b",1,208,27,0.175,1.342444897,7.20224778047547,208,-0.5,1342.444897,0.975658320185108
208,NA,"positive","thrifty",NA,NA,NA,NA,0,32,32,2,NA,NA,NA,NA,"up",0,1.042336941,"2016_Sep_30_1301",60.0114749,"heterogeneity160929b",1,208,33,0.325,1.042336941,6.94922052992861,208,0.5,1042.336941,0.132799347493424
208,NA,"positive","inventive",NA,NA,NA,NA,0,35,35,18,NA,NA,NA,NA,"up",0,1.725358963,"2016_Sep_30_1301",60.0114749,"heterogeneity160929b",1,208,36,0.4,1.725358963,7.45319040230956,208,0.5,1725.358963,2.05107984715708
208,NA,"positive","persistent",NA,NA,NA,NA,0,36,36,13,NA,NA,NA,NA,"up",0,0.825052023,"2016_Sep_30_1301",60.0114749,"heterogeneity160929b",1,208,37,0.425,0.825052023,6.71544644252842,208,0.5,825.052023,-0.477449528304047
208,NA,"positive","enthusiastic",NA,NA,NA,NA,0,39,39,16,NA,NA,NA,NA,"up",0,1.174496889,"2016_Sep_30_1301",60.0114749,"heterogeneity160929b",1,208,40,0.5,1.174496889,7.06859515530874,208,0.5,1174.496889,0.503973106053382
209,NA,"positive","idealistic",NA,NA,NA,NA,0,0,0,3,NA,NA,NA,NA,"up",0,1.974887133,"2016_Sep_30_1311",59.99876979,"heterogeneity160929b",1,209,1,-0.475,1.974887133,7.58826652785412,209,0.5,1974.887133,2.75188451700673
209,NA,"positive","tender",NA,NA,NA,NA,0,1,1,6,NA,NA,NA,NA,"up",0,1.526073933,"2016_Sep_30_1311",59.99876979,"heterogeneity160929b",1,209,2,-0.45,1.526073933,7.33045365955677,209,0.5,1526.073933,1.49138400337667
209,NA,"positive","tidy",NA,NA,NA,NA,0,3,3,4,NA,NA,NA,NA,"up",0,0.860822201,"2016_Sep_30_1311",59.99876979,"heterogeneity160929b",1,209,4,-0.4,0.860822201,6.75788798019947,209,0.5,860.822201,-0.376988294673578
209,NA,"positive","courageous",NA,NA,NA,NA,0,8,8,15,NA,NA,NA,NA,"up",0,1.508433104,"2016_Sep_30_1311",59.99876979,"heterogeneity160929b",1,209,9,-0.275,1.508433104,7.31882671157669,209,0.5,1508.433104,1.44183939547441
209,NA,"negative","insecure",NA,NA,NA,NA,0,11,11,22,NA,NA,NA,NA,"up",0,1.342412949,"2016_Sep_30_1311",59.99876979,"heterogeneity160929b",1,209,12,-0.2,1.342412949,7.20222398182256,209,-0.5,1342.412949,0.975568593611983
209,NA,"negative","boring",NA,NA,NA,NA,0,14,14,20,NA,NA,NA,NA,"up",0,1.526469946,"2016_Sep_30_1311",59.99876979,"heterogeneity160929b",1,209,15,-0.125,1.526469946,7.33071312380555,209,-0.5,1526.469946,1.49249621351199
209,NA,"positive","neat",NA,NA,NA,NA,0,15,15,5,NA,NA,NA,NA,"up",0,0.744368076,"2016_Sep_30_1311",59.99876979,"heterogeneity160929b",1,209,16,-0.1,0.744368076,6.61253563830308,209,0.5,744.368076,-0.704051946938795
209,NA,"negative","cynical",NA,NA,NA,NA,0,16,16,37,NA,NA,NA,NA,"up",0,1.326133013,"2016_Sep_30_1311",59.99876979,"heterogeneity160929b",1,209,17,-0.075,1.326133013,7.190022477178,209,-0.5,1326.133013,0.929846079902795
209,NA,"negative","anxious",NA,NA,NA,NA,0,22,22,35,NA,NA,NA,NA,"up",0,1.709336042,"2016_Sep_30_1311",59.99876979,"heterogeneity160929b",1,209,23,0.075,1.709336042,7.44386029456453,209,-0.5,1709.336042,2.00607916502394
209,NA,"positive","disciplined",NA,NA,NA,NA,0,27,27,1,NA,NA,NA,NA,"up",0,1.191556931,"2016_Sep_30_1311",59.99876979,"heterogeneity160929b",1,209,28,0.2,1.191556931,7.08301607634571,209,0.5,1191.556931,0.551886562483697
209,NA,"positive","orderly",NA,NA,NA,NA,0,34,34,14,NA,NA,NA,NA,"up",0,0.842427969,"2016_Sep_30_1311",59.99876979,"heterogeneity160929b",1,209,35,0.375,0.842427969,6.73628816183556,209,0.5,842.427969,-0.42864884940733
209,NA,"negative","withdrawn",NA,NA,NA,NA,0,36,36,38,NA,NA,NA,NA,"up",0,1.408808947,"2016_Sep_30_1311",59.99876979,"heterogeneity160929b",1,209,37,0.425,1.408808947,7.25049990795683,209,-0.5,1408.808947,1.16204303238067
209,NA,"positive","persistent",NA,NA,NA,NA,0,37,37,13,NA,NA,NA,NA,"up",0,0.958498001,"2016_Sep_30_1311",59.99876979,"heterogeneity160929b",1,209,38,0.45,0.958498001,6.86536747693319,209,0.5,958.498001,-0.102663929727923
209,NA,"positive","thrifty",NA,NA,NA,NA,0,38,38,2,NA,NA,NA,NA,"up",0,1.42575407,"2016_Sep_30_1311",59.99876979,"heterogeneity160929b",1,209,39,0.475,1.42575407,7.26245612467048,209,0.5,1425.75407,1.20963373658684
209,NA,"negative","inhibited",NA,NA,NA,NA,0,39,39,25,NA,NA,NA,NA,"up",0,1.892108917,"2016_Sep_30_1311",59.99876979,"heterogeneity160929b",1,209,40,0.5,1.892108917,7.54544731507964,209,-0.5,1892.108917,2.51940030356252
210,NA,"positive","enthusiastic",NA,NA,NA,NA,0,0,0,16,NA,NA,NA,NA,"up",0,0.574848175,"2016_Sep_30_1322",60.01173249,"heterogeneity160929b",1,210,1,-0.475,0.574848175,6.35410596245347,210,0.5,574.848175,-1.18015185282618
210,NA,"negative","moody",NA,NA,NA,NA,0,1,1,30,NA,NA,NA,NA,"up",0,0.743468046,"2016_Sep_30_1322",60.01173249,"heterogeneity160929b",1,210,2,-0.45,0.743468046,6.61132578716897,210,-0.5,743.468046,-0.706579698522933
210,NA,"positive","inventive",NA,NA,NA,NA,0,2,2,18,NA,NA,NA,NA,"up",0,0.724698067,"2016_Sep_30_1322",60.01173249,"heterogeneity160929b",1,210,3,-0.425,0.724698067,6.58575510880107,210,0.5,724.698067,-0.759295545940803
210,NA,"positive","tender",NA,NA,NA,NA,0,3,3,6,NA,NA,NA,NA,"up",0,0.493405104,"2016_Sep_30_1322",60.01173249,"heterogeneity160929b",1,210,4,-0.4,0.493405104,6.20133054858979,210,0.5,493.405104,-1.40888628583107
210,NA,"positive","trusting",NA,NA,NA,NA,0,4,4,8,NA,NA,NA,NA,"up",0,0.55924511,"2016_Sep_30_1322",60.01173249,"heterogeneity160929b",1,210,5,-0.375,0.55924511,6.32658785647864,210,0.5,559.24511,-1.22397336129942
210,NA,"negative","forgetful",NA,NA,NA,NA,0,5,5,31,NA,NA,NA,NA,"up",0,0.642216921,"2016_Sep_30_1322",60.01173249,"heterogeneity160929b",1,210,6,-0.35,0.642216921,6.46492612979787,210,-0.5,642.216921,-0.990945432570242
210,NA,"positive","tidy",NA,NA,NA,NA,0,6,6,4,NA,NA,NA,NA,"up",0,1.010924816,"2016_Sep_30_1322",60.01173249,"heterogeneity160929b",1,210,7,-0.325,1.010924816,6.9186208502809,210,0.5,1010.924816,0.0445777896232192
210,NA,"positive","persistent",NA,NA,NA,NA,0,7,7,13,NA,NA,NA,NA,"up",0,0.741193056,"2016_Sep_30_1322",60.01173249,"heterogeneity160929b",1,210,8,-0.3,0.741193056,6.60826112577585,210,0.5,741.193056,-0.712969051740493
210,NA,"negative","gullible",NA,NA,NA,NA,0,8,8,34,NA,NA,NA,NA,"up",0,0.959150076,"2016_Sep_30_1322",60.01173249,"heterogeneity160929b",1,210,9,-0.275,0.959150076,6.86604755481917,210,-0.5,959.150076,-0.100832564535399
210,NA,"negative","insecure",NA,NA,NA,NA,0,9,9,22,NA,NA,NA,NA,"up",0,0.642423153,"2016_Sep_30_1322",60.01173249,"heterogeneity160929b",1,210,10,-0.25,0.642423153,6.4652472033903,210,-0.5,642.423153,-0.99036622602746
210,NA,"negative","inhibited",NA,NA,NA,NA,0,10,10,25,NA,NA,NA,NA,"up",0,0.892216921,"2016_Sep_30_1322",60.01173249,"heterogeneity160929b",1,210,11,-0.225,0.892216921,6.79370928799291,210,-0.5,892.216921,-0.288815619080988
210,NA,"positive","neat",NA,NA,NA,NA,0,12,12,5,NA,NA,NA,NA,"up",0,0.894318819,"2016_Sep_30_1322",60.01173249,"heterogeneity160929b",1,210,13,-0.175,0.894318819,6.7960623324048,210,0.5,894.318819,-0.282912398078135
210,NA,"positive","artistic",NA,NA,NA,NA,0,13,13,9,NA,NA,NA,NA,"up",0,0.992321014,"2016_Sep_30_1322",60.01173249,"heterogeneity160929b",1,210,14,-0.15,0.992321014,6.90004665775935,210,0.5,992.321014,-0.0076713464905848
210,NA,"negative","cynical",NA,NA,NA,NA,0,14,14,37,NA,NA,NA,NA,"up",0,0.776267052,"2016_Sep_30_1322",60.01173249,"heterogeneity160929b",1,210,15,-0.125,0.776267052,6.65449660015617,210,-0.5,776.267052,-0.614463058661282
210,NA,"positive","thrifty",NA,NA,NA,NA,0,16,16,2,NA,NA,NA,NA,"up",0,0.94282794,"2016_Sep_30_1322",60.01173249,"heterogeneity160929b",1,210,17,-0.075,0.94282794,6.84888380575227,210,0.5,942.82794,-0.146673597757104
210,NA,"positive","confident",NA,NA,NA,NA,0,17,17,7,NA,NA,NA,NA,"up",0,0.675505877,"2016_Sep_30_1322",60.01173249,"heterogeneity160929b",1,210,18,-0.05,0.675505877,6.51546185758446,210,0.5,675.505877,-0.897452758700114
210,NA,"negative","irritable",NA,NA,NA,NA,0,18,18,27,NA,NA,NA,NA,"up",0,0.67541194,"2016_Sep_30_1322",60.01173249,"heterogeneity160929b",1,210,19,-0.025,0.67541194,6.515322786208,210,-0.5,675.41194,-0.897716582573273
210,NA,"positive","ambitious",NA,NA,NA,NA,0,19,19,10,NA,NA,NA,NA,"up",0,0.675139904,"2016_Sep_30_1322",60.01173249,"heterogeneity160929b",1,210,20,0,0.675139904,6.51491993458125,210,0.5,675.139904,-0.898480600917042
210,NA,"positive","proud",NA,NA,NA,NA,0,21,21,11,NA,NA,NA,NA,"up",0,0.593598843,"2016_Sep_30_1322",60.01173249,"heterogeneity160929b",1,210,22,0.05,0.593598843,6.38620374272728,210,0.5,593.598843,-1.12749024072363
210,NA,"negative","childish",NA,NA,NA,NA,0,24,24,29,NA,NA,NA,NA,"up",0,1.042363882,"2016_Sep_30_1322",60.01173249,"heterogeneity160929b",1,210,25,0.125,1.042363882,6.94924637632317,210,-0.5,1042.363882,0.132875011810645
210,NA,"positive","courageous",NA,NA,NA,NA,0,26,26,15,NA,NA,NA,NA,"up",0,0.575269938,"2016_Sep_30_1322",60.01173249,"heterogeneity160929b",1,210,27,0.175,0.575269938,6.35483938802801,210,0.5,575.269938,-1.17896732332007
210,NA,"positive","brilliant",NA,NA,NA,NA,0,31,31,12,NA,NA,NA,NA,"up",0,0.858911991,"2016_Sep_30_1322",60.01173249,"heterogeneity160929b",1,210,32,0.3,0.858911991,6.75566646155492,210,0.5,858.911991,-0.382353156237679
210,NA,"positive","talented",NA,NA,NA,NA,0,32,32,0,NA,NA,NA,NA,"up",0,0.725353956,"2016_Sep_30_1322",60.01173249,"heterogeneity160929b",1,210,33,0.325,0.725353956,6.58665975088884,210,0.5,725.353956,-0.757453469055844
210,NA,"positive","outgoing",NA,NA,NA,NA,0,38,38,17,NA,NA,NA,NA,"up",0,0.608871937,"2016_Sep_30_1322",60.01173249,"heterogeneity160929b",1,210,39,0.475,0.608871937,6.41160796152485,210,0.5,608.871937,-1.08459546215713
212,NA,"positive","confident",NA,NA,NA,NA,0,0,0,7,NA,NA,NA,NA,"up",0,0.75917697,"2016_Sep_30_1359",59.98229549,"heterogeneity160929b",1,212,1,-0.475,0.75917697,6.63223491227292,212,0.5,759.17697,-0.662460883009986
212,NA,"negative","moody",NA,NA,NA,NA,0,3,3,30,NA,NA,NA,NA,"up",0,1.660128832,"2016_Sep_30_1359",59.98229549,"heterogeneity160929b",1,212,4,-0.4,1.660128832,7.41465048797767,212,-0.5,1660.128832,1.86787976830544
212,NA,"negative","timid",NA,NA,NA,NA,0,5,5,28,NA,NA,NA,NA,"up",0,1.476336002,"2016_Sep_30_1359",59.98229549,"heterogeneity160929b",1,212,6,-0.35,1.476336002,7.29731862288497,212,-0.5,1476.336002,1.35169406651119
212,NA,"positive","neat",NA,NA,NA,NA,0,6,6,5,NA,NA,NA,NA,"up",0,0.777848959,"2016_Sep_30_1359",59.98229549,"heterogeneity160929b",1,212,7,-0.325,0.777848959,6.65653236522793,212,0.5,777.848959,-0.610020242393813
212,NA,"positive","tender",NA,NA,NA,NA,0,7,7,6,NA,NA,NA,NA,"up",0,1.309538126,"2016_Sep_30_1359",59.98229549,"heterogeneity160929b",1,212,8,-0.3,1.309538126,7.1774297784533,212,0.5,1309.538126,0.883239020246054
212,NA,"negative","childish",NA,NA,NA,NA,0,9,9,29,NA,NA,NA,NA,"up",0,0.925904036,"2016_Sep_30_1359",59.98229549,"heterogeneity160929b",1,212,10,-0.25,0.925904036,6.83077059644655,212,-0.5,925.904036,-0.194204707993224
212,NA,"positive","persistent",NA,NA,NA,NA,0,10,10,13,NA,NA,NA,NA,"up",0,1.02474308,"2016_Sep_30_1359",59.98229549,"heterogeneity160929b",1,212,11,-0.225,1.02474308,6.93219720649509,212,0.5,1024.74308,0.0833866501234802
212,NA,"positive","tidy",NA,NA,NA,NA,0,11,11,4,NA,NA,NA,NA,"up",0,0.677700043,"2016_Sep_30_1359",59.98229549,"heterogeneity160929b",1,212,12,-0.2,0.677700043,6.51870477559197,212,0.5,677.700043,-0.891290401242736
212,NA,"positive","artistic",NA,NA,NA,NA,0,14,14,9,NA,NA,NA,NA,"up",0,0.825507164,"2016_Sep_30_1359",59.98229549,"heterogeneity160929b",1,212,15,-0.125,0.825507164,6.71599794169927,212,0.5,825.507164,-0.476171256042282
212,NA,"positive","outgoing",NA,NA,NA,NA,0,17,17,17,NA,NA,NA,NA,"up",0,0.759136915,"2016_Sep_30_1359",59.98229549,"heterogeneity160929b",1,212,18,-0.05,0.759136915,6.63218214979685,212,0.5,759.136915,-0.662573378248703
212,NA,"positive","trusting",NA,NA,NA,NA,0,18,18,8,NA,NA,NA,NA,"up",0,0.842518806,"2016_Sep_30_1359",59.98229549,"heterogeneity160929b",1,212,19,-0.025,0.842518806,6.73639598363911,212,0.5,842.518806,-0.428393731943858
212,NA,"negative","forgetful",NA,NA,NA,NA,0,19,19,31,NA,NA,NA,NA,"up",0,1.108591795,"2016_Sep_30_1359",59.98229549,"heterogeneity160929b",1,212,20,0,1.108591795,7.01084583573154,212,-0.5,1108.591795,0.318877380620535
212,NA,"positive","inventive",NA,NA,NA,NA,0,20,20,18,NA,NA,NA,NA,"up",0,1.775488853,"2016_Sep_30_1359",59.98229549,"heterogeneity160929b",1,212,21,0.025,1.775488853,7.48183107413195,212,0.5,1775.488853,2.19187060842082
212,NA,"positive","ambitious",NA,NA,NA,NA,0,22,22,10,NA,NA,NA,NA,"up",0,1.324878931,"2016_Sep_30_1359",59.98229549,"heterogeneity160929b",1,212,23,0.075,1.324878931,7.18907636141538,212,0.5,1324.878931,0.926323966459754
212,NA,"negative","messy",NA,NA,NA,NA,0,24,24,36,NA,NA,NA,NA,"up",0,1.210129023,"2016_Sep_30_1359",59.98229549,"heterogeneity160929b",1,212,25,0.125,1.210129023,7.09848226348466,212,-0.5,1210.129023,0.604046640451958
212,NA,"negative","worrying",NA,NA,NA,NA,0,25,25,32,NA,NA,NA,NA,"up",0,1.723716974,"2016_Sep_30_1359",59.98229549,"heterogeneity160929b",1,212,26,0.15,1.723716974,7.45223826953311,212,-0.5,1723.716974,2.04646828943579
212,NA,"positive","wise",NA,NA,NA,NA,0,29,29,19,NA,NA,NA,NA,"up",0,0.710990906,"2016_Sep_30_1359",59.98229549,"heterogeneity160929b",1,212,30,0.25,0.710990906,6.56665963928544,212,0.5,710.990906,-0.797792371526391
212,NA,"positive","talented",NA,NA,NA,NA,0,31,31,0,NA,NA,NA,NA,"up",0,0.725861073,"2016_Sep_30_1359",59.98229549,"heterogeneity160929b",1,212,32,0.3,0.725861073,6.5873586370091,212,0.5,725.861073,-0.756029221197335
212,NA,"positive","courageous",NA,NA,NA,NA,0,33,33,15,NA,NA,NA,NA,"up",0,1.058744907,"2016_Sep_30_1359",59.98229549,"heterogeneity160929b",1,212,34,0.35,1.058744907,6.96483943556508,212,0.5,1058.744907,0.178881435922696
212,NA,"positive","idealistic",NA,NA,NA,NA,0,34,34,3,NA,NA,NA,NA,"up",0,0.925211906,"2016_Sep_30_1359",59.98229549,"heterogeneity160929b",1,212,35,0.375,0.925211906,6.83002279884344,212,0.5,925.211906,-0.196148568424465
212,NA,"positive","brilliant",NA,NA,NA,NA,0,38,38,12,NA,NA,NA,NA,"up",0,0.641827106,"2016_Sep_30_1359",59.98229549,"heterogeneity160929b",1,212,39,0.475,0.641827106,6.46431896212483,212,0.5,641.827106,-0.992040235503223
212,NA,"positive","enthusiastic",NA,NA,NA,NA,0,39,39,16,NA,NA,NA,NA,"up",0,0.641291142,"2016_Sep_30_1359",59.98229549,"heterogeneity160929b",1,212,40,0.5,0.641291142,6.4634835534912,212,0.5,641.291142,-0.993545500716651
302,NA,"negative","timid",NA,NA,NA,NA,0,0,0,28,NA,NA,NA,NA,"up",0,1.06052494,"2016_Oct_03_1115",59.99010249,"heterogeneity160929b",1,214,1,-0.475,1.06052494,6.96651929093708,302,-0.5,1060.52494,0.183880692875875
302,NA,"positive","persistent",NA,NA,NA,NA,0,1,1,13,NA,NA,NA,NA,"up",0,0.758313894,"2016_Oct_03_1115",59.99010249,"heterogeneity160929b",1,214,2,-0.45,0.758313894,6.63109740810266,302,0.5,758.313894,-0.664884848573614
302,NA,"negative","antisocial",NA,NA,NA,NA,0,3,3,33,NA,NA,NA,NA,"up",0,1.158375978,"2016_Oct_03_1115",59.99010249,"heterogeneity160929b",1,214,4,-0.4,1.158375978,7.05477428419268,302,-0.5,1158.375978,0.458697217118554
302,NA,"positive","tidy",NA,NA,NA,NA,0,5,5,4,NA,NA,NA,NA,"up",0,0.661079884,"2016_Oct_03_1115",59.99010249,"heterogeneity160929b",1,214,6,-0.35,0.661079884,6.49387468580217,302,0.5,661.079884,-0.937968437798063
302,NA,"positive","tender",NA,NA,NA,NA,0,9,9,6,NA,NA,NA,NA,"up",0,1.00987792,"2016_Oct_03_1115",59.99010249,"heterogeneity160929b",1,214,10,-0.25,1.00987792,6.91758473124265,302,0.5,1009.87792,0.0416375620503291
302,NA,"negative","insecure",NA,NA,NA,NA,0,10,10,22,NA,NA,NA,NA,"up",0,0.742558002,"2016_Oct_03_1115",59.99010249,"heterogeneity160929b",1,214,11,-0.225,0.742558002,6.61010098479758,302,-0.5,742.558002,-0.709135574618882
302,NA,"negative","irritable",NA,NA,NA,NA,0,11,11,27,NA,NA,NA,NA,"up",0,1.342019081,"2016_Oct_03_1115",59.99010249,"heterogeneity160929b",1,214,12,-0.2,1.342019081,7.2019305357614,302,-0.5,1342.019081,0.974462407750465
302,NA,"positive","artistic",NA,NA,NA,NA,0,13,13,9,NA,NA,NA,NA,"up",0,0.709079027,"2016_Oct_03_1115",59.99010249,"heterogeneity160929b",1,214,14,-0.15,0.709079027,6.56396698294404,302,0.5,709.079027,-0.803161920509127
302,NA,"negative","cynical",NA,NA,NA,NA,0,14,14,37,NA,NA,NA,NA,"up",0,1.1758039,"2016_Oct_03_1115",59.99010249,"heterogeneity160929b",1,214,15,-0.125,1.1758039,7.06970736285328,302,-0.5,1175.8039,0.507643871612015
302,NA,"positive","wise",NA,NA,NA,NA,0,15,15,19,NA,NA,NA,NA,"up",0,1.710877895,"2016_Oct_03_1115",59.99010249,"heterogeneity160929b",1,214,16,-0.1,1.710877895,7.44476190664661,302,0.5,1710.877895,2.01040948886121
302,NA,"negative","inhibited",NA,NA,NA,NA,0,16,16,25,NA,NA,NA,NA,"up",0,1.941978931,"2016_Oct_03_1115",59.99010249,"heterogeneity160929b",1,214,17,-0.075,1.941978931,7.5714627996678,302,-0.5,1941.978931,2.65946119807663
302,NA,"positive","trusting",NA,NA,NA,NA,0,20,20,8,NA,NA,NA,NA,"up",0,0.792037964,"2016_Oct_03_1115",59.99010249,"heterogeneity160929b",1,214,21,0.025,0.792037964,6.67460932500905,302,0.5,792.037964,-0.57017014865682
302,NA,"positive","brilliant",NA,NA,NA,NA,0,21,21,12,NA,NA,NA,NA,"up",0,0.892144918,"2016_Oct_03_1115",59.99010249,"heterogeneity160929b",1,214,22,0.05,0.892144918,6.7936285835097,302,0.5,892.144918,-0.289017840892831
302,NA,"negative","withdrawn",NA,NA,NA,NA,0,22,22,38,NA,NA,NA,NA,"up",0,1.425414085,"2016_Oct_03_1115",59.99010249,"heterogeneity160929b",1,214,23,0.075,1.425414085,7.26221763645574,302,-0.5,1425.414085,1.20867888216829
302,NA,"negative","worrying",NA,NA,NA,NA,0,23,23,32,NA,NA,NA,NA,"up",0,1.025969982,"2016_Oct_03_1115",59.99010249,"heterogeneity160929b",1,214,24,0.1,1.025969982,6.93339376799277,302,-0.5,1025.969982,0.0868324280131985
302,NA,"negative","messy",NA,NA,NA,NA,0,24,24,36,NA,NA,NA,NA,"up",0,1.110090971,"2016_Oct_03_1115",59.99010249,"heterogeneity160929b",1,214,25,0.125,1.110090971,7.01219724680404,302,-0.5,1110.090971,0.323087845281605
302,NA,"negative","stubborn",NA,NA,NA,NA,0,25,25,39,NA,NA,NA,NA,"up",0,0.975685835,"2016_Oct_03_1115",59.99010249,"heterogeneity160929b",1,214,26,0.15,0.975685835,6.88314064422642,302,-0.5,975.685835,-0.0543915670051062
302,NA,"positive","courageous",NA,NA,NA,NA,0,26,26,15,NA,NA,NA,NA,"up",0,1.5729599,"2016_Oct_03_1115",59.99010249,"heterogeneity160929b",1,214,27,0.175,1.5729599,7.3607144100442,302,0.5,1572.9599,1.62306414443657
302,NA,"negative","anxious",NA,NA,NA,NA,0,27,27,35,NA,NA,NA,NA,"up",0,1.092806101,"2016_Oct_03_1115",59.99010249,"heterogeneity160929b",1,214,28,0.2,1.092806101,6.99650407170724,302,-0.5,1092.806101,0.274542955084461
302,NA,"negative","tense",NA,NA,NA,NA,0,28,28,26,NA,NA,NA,NA,"up",0,0.860164165,"2016_Oct_03_1115",59.99010249,"heterogeneity160929b",1,214,29,0.225,0.860164165,6.75712326056535,302,-0.5,860.164165,-0.378836401449374
302,NA,"positive","disciplined",NA,NA,NA,NA,0,30,30,1,NA,NA,NA,NA,"up",0,1.224900961,"2016_Oct_03_1115",59.99010249,"heterogeneity160929b",1,214,31,0.275,1.224900961,7.11061527154717,302,0.5,1224.900961,0.645533912743217
302,NA,"negative","moody",NA,NA,NA,NA,0,31,31,30,NA,NA,NA,NA,"up",0,1.309990883,"2016_Oct_03_1115",59.99010249,"heterogeneity160929b",1,214,32,0.3,1.309990883,7.17777545662899,302,-0.5,1309.990883,0.884510596997918
302,NA,"positive","talented",NA,NA,NA,NA,0,33,33,0,NA,NA,NA,NA,"up",0,0.792583942,"2016_Oct_03_1115",59.99010249,"heterogeneity160929b",1,214,34,0.35,0.792583942,6.67529842064699,302,0.5,792.583942,-0.568636758931583
302,NA,"positive","idealistic",NA,NA,NA,NA,0,35,35,3,NA,NA,NA,NA,"up",0,0.875169992,"2016_Oct_03_1115",59.99010249,"heterogeneity160929b",1,214,36,0.4,0.875169992,6.77441814405979,302,0.5,875.169992,-0.336692247398326
302,NA,"positive","ambitious",NA,NA,NA,NA,0,36,36,10,NA,NA,NA,NA,"up",0,0.792320013,"2016_Oct_03_1115",59.99010249,"heterogeneity160929b",1,214,37,0.425,0.792320013,6.67496536702363,302,0.5,792.320013,-0.569378008609761
302,NA,"negative","fearful",NA,NA,NA,NA,0,38,38,24,NA,NA,NA,NA,"up",0,1.042845011,"2016_Oct_03_1115",59.99010249,"heterogeneity160929b",1,214,39,0.475,1.042845011,6.94970784472583,302,-0.5,1042.845011,0.134226271870782
302,NA,"positive","inventive",NA,NA,NA,NA,0,39,39,18,NA,NA,NA,NA,"up",0,1.075208902,"2016_Oct_03_1115",59.99010249,"heterogeneity160929b",1,214,40,0.5,1.075208902,6.98027024912449,302,0.5,1075.208902,0.225120882877248
303,NA,"negative","messy",NA,NA,NA,NA,0,3,3,36,NA,NA,NA,NA,"up",0,1.360101938,"2016_Oct_03_1138",60.01353569,"heterogeneity160929b",1,215,4,-0.4,1.360101938,7.21531493033292,303,-0.5,1360.101938,1.02524845980152
303,NA,"positive","neat",NA,NA,NA,NA,0,4,4,5,NA,NA,NA,NA,"up",0,0.7608881,"2016_Oct_03_1138",60.01353569,"heterogeneity160929b",1,215,5,-0.375,0.7608881,6.63448630368576,303,0.5,760.8881,-0.657655141458963
303,NA,"positive","thrifty",NA,NA,NA,NA,0,6,6,2,NA,NA,NA,NA,"up",0,1.109583139,"2016_Oct_03_1138",60.01353569,"heterogeneity160929b",1,215,7,-0.325,1.109583139,7.0117396733192,303,0.5,1109.583139,0.321661589331829
303,NA,"positive","ambitious",NA,NA,NA,NA,0,8,8,10,NA,NA,NA,NA,"up",0,1.008418083,"2016_Oct_03_1138",60.01353569,"heterogeneity160929b",1,215,9,-0.275,1.008418083,6.91613812752109,303,0.5,1008.418083,0.03753758172819
303,NA,"positive","wise",NA,NA,NA,NA,0,9,9,19,NA,NA,NA,NA,"up",0,0.594347954,"2016_Oct_03_1138",60.01353569,"heterogeneity160929b",1,215,10,-0.25,0.594347954,6.38746492900462,303,0.5,594.347954,-1.12538634805677
303,NA,"positive","outgoing",NA,NA,NA,NA,0,11,11,17,NA,NA,NA,NA,"up",0,0.725860119,"2016_Oct_03_1138",60.01353569,"heterogeneity160929b",1,215,12,-0.2,0.725860119,6.58735732270714,303,0.5,725.860119,-0.756031900524703
303,NA,"positive","artistic",NA,NA,NA,NA,0,12,12,9,NA,NA,NA,NA,"up",0,0.875780106,"2016_Oct_03_1138",60.01353569,"heterogeneity160929b",1,215,13,-0.175,0.875780106,6.77511503887751,303,0.5,875.780106,-0.334978730482218
303,NA,"positive","courageous",NA,NA,NA,NA,0,14,14,15,NA,NA,NA,NA,"up",0,0.807809114,"2016_Oct_03_1138",60.01353569,"heterogeneity160929b",1,215,15,-0.125,0.807809114,6.69432578556133,303,0.5,807.809114,-0.525876570224776
303,NA,"positive","enthusiastic",NA,NA,NA,NA,0,15,15,16,NA,NA,NA,NA,"up",0,0.757468939,"2016_Oct_03_1138",60.01353569,"heterogeneity160929b",1,215,16,-0.1,0.757468939,6.62998253192235,303,0.5,757.468939,-0.667257920959841
303,NA,"negative","tense",NA,NA,NA,NA,0,16,16,26,NA,NA,NA,NA,"up",0,1.626744986,"2016_Oct_03_1138",60.01353569,"heterogeneity160929b",1,215,17,-0.075,1.626744986,7.39433635615119,303,-0.5,1626.744986,1.7741205940433
303,NA,"positive","inventive",NA,NA,NA,NA,0,21,21,18,NA,NA,NA,NA,"up",0,0.75891304,"2016_Oct_03_1138",60.01353569,"heterogeneity160929b",1,215,22,0.05,0.75891304,6.63188719902677,303,0.5,758.91304,-0.663202135496683
303,NA,"positive","disciplined",NA,NA,NA,NA,0,22,22,1,NA,NA,NA,NA,"up",0,0.724956989,"2016_Oct_03_1138",60.01353569,"heterogeneity160929b",1,215,23,0.075,0.724956989,6.58611232757761,303,0.5,724.956989,-0.758568358518529
303,NA,"positive","confident",NA,NA,NA,NA,0,24,24,7,NA,NA,NA,NA,"up",0,0.758905888,"2016_Oct_03_1138",60.01353569,"heterogeneity160929b",1,215,25,0.125,0.758905888,6.63187777497774,303,0.5,758.905888,-0.663222222026387
303,NA,"positive","persistent",NA,NA,NA,NA,0,25,25,13,NA,NA,NA,NA,"up",0,0.758583069,"2016_Oct_03_1138",60.01353569,"heterogeneity160929b",1,215,26,0.15,0.758583069,6.63145231026068,303,0.5,758.583069,-0.66412886540343
303,NA,"positive","talented",NA,NA,NA,NA,0,27,27,0,NA,NA,NA,NA,"up",0,1.12609601,"2016_Oct_03_1138",60.01353569,"heterogeneity160929b",1,215,28,0.2,1.12609601,7.0265120714945,303,0.5,1126.09601,0.368038305473438
303,NA,"positive","orderly",NA,NA,NA,NA,0,30,30,14,NA,NA,NA,NA,"up",0,1.192326069,"2016_Oct_03_1138",60.01353569,"heterogeneity160929b",1,215,31,0.275,1.192326069,7.0836613580367,303,0.5,1192.326069,0.554046701365647
303,NA,"positive","brilliant",NA,NA,NA,NA,0,32,32,12,NA,NA,NA,NA,"up",0,0.825211048,"2016_Oct_03_1138",60.01353569,"heterogeneity160929b",1,215,33,0.325,0.825211048,6.71563916937698,303,0.5,825.211048,-0.477002903529687
303,NA,"positive","proud",NA,NA,NA,NA,0,33,33,11,NA,NA,NA,NA,"up",0,0.793403149,"2016_Oct_03_1138",60.01353569,"heterogeneity160929b",1,215,34,0.35,0.793403149,6.67633147706656,303,0.5,793.403149,-0.566336000299107
303,NA,"positive","tidy",NA,NA,NA,NA,0,34,34,4,NA,NA,NA,NA,"up",0,0.977759123,"2016_Oct_03_1138",60.01353569,"heterogeneity160929b",1,215,35,0.375,0.977759123,6.88526334419808,303,0.5,977.759123,-0.048568697738108
303,NA,"positive","idealistic",NA,NA,NA,NA,0,35,35,3,NA,NA,NA,NA,"up",0,1.275164127,"2016_Oct_03_1138",60.01353569,"heterogeneity160929b",1,215,36,0.4,1.275164127,7.15083017636673,303,0.5,1275.164127,0.786698982219055
304,NA,"negative","worrying",NA,NA,NA,NA,0,0,0,32,NA,NA,NA,NA,"up",0,0.926167965,"2016_Oct_03_1158",60.00417738,"heterogeneity160929b",1,216,1,-0.475,0.926167965,6.83105560588641,304,-0.5,926.167965,-0.193463458315047
304,NA,"positive","brilliant",NA,NA,NA,NA,0,1,1,12,NA,NA,NA,NA,"up",0,0.642183065,"2016_Oct_03_1158",60.00417738,"heterogeneity160929b",1,216,2,-0.45,0.642183065,6.46487341101808,304,0.5,642.183065,-0.991040517798104
304,NA,"positive","confident",NA,NA,NA,NA,0,2,2,7,NA,NA,NA,NA,"up",0,0.591973066,"2016_Oct_03_1158",60.00417738,"heterogeneity160929b",1,216,3,-0.425,0.591973066,6.38346113722738,304,0.5,591.973066,-1.13205626673077
304,NA,"positive","outgoing",NA,NA,NA,NA,0,3,3,17,NA,NA,NA,NA,"up",0,0.592640877,"2016_Oct_03_1158",60.00417738,"heterogeneity160929b",1,216,4,-0.4,0.592640877,6.38458861183578,304,0.5,592.640877,-1.13018070667926
304,NA,"positive","neat",NA,NA,NA,NA,0,4,4,5,NA,NA,NA,NA,"up",0,0.511008978,"2016_Oct_03_1158",60.00417738,"heterogeneity160929b",1,216,5,-0.375,0.511008978,6.23638715952099,304,0.5,511.008978,-1.35944546675784
304,NA,"positive","wise",NA,NA,NA,NA,0,6,6,19,NA,NA,NA,NA,"up",0,0.710835934,"2016_Oct_03_1158",60.00417738,"heterogeneity160929b",1,216,7,-0.325,0.710835934,6.56644164930768,304,0.5,710.835934,-0.798227613372215
304,NA,"positive","proud",NA,NA,NA,NA,0,8,8,11,NA,NA,NA,NA,"up",0,0.560127974,"2016_Oct_03_1158",60.00417738,"heterogeneity160929b",1,216,9,-0.275,0.560127974,6.32816528262133,304,0.5,560.127974,-1.2214938207568
304,NA,"positive","persistent",NA,NA,NA,NA,0,10,10,13,NA,NA,NA,NA,"up",0,0.691506147,"2016_Oct_03_1158",60.00417738,"heterogeneity160929b",1,216,11,-0.225,0.691506147,6.53887204043624,304,0.5,691.506147,-0.852515692336603
304,NA,"positive","enthusiastic",NA,NA,NA,NA,0,12,12,16,NA,NA,NA,NA,"up",0,0.757594109,"2016_Oct_03_1158",60.00417738,"heterogeneity160929b",1,216,13,-0.175,0.757594109,6.63014776597046,304,0.5,757.594109,-0.666906378604824
304,NA,"negative","gullible",NA,NA,NA,NA,0,15,15,34,NA,NA,NA,NA,"up",0,0.825896978,"2016_Oct_03_1158",60.00417738,"heterogeneity160929b",1,216,16,-0.1,0.825896978,6.71647004177135,304,-0.5,825.896978,-0.47507645591782
304,NA,"negative","tense",NA,NA,NA,NA,0,16,16,26,NA,NA,NA,NA,"up",0,0.610330105,"2016_Oct_03_1158",60.00417738,"heterogeneity160929b",1,216,17,-0.075,0.610330105,6.4139999665331,304,-0.5,610.330105,-1.08050016925363
304,NA,"positive","artistic",NA,NA,NA,NA,0,18,18,9,NA,NA,NA,NA,"up",0,0.542662859,"2016_Oct_03_1158",60.00417738,"heterogeneity160929b",1,216,19,-0.025,0.542662859,6.29648824128499,304,0.5,542.662859,-1.27054493250687
304,NA,"positive","talented",NA,NA,NA,NA,0,19,19,0,NA,NA,NA,NA,"up",0,0.525878191,"2016_Oct_03_1158",60.00417738,"heterogeneity160929b",1,216,20,0,0.525878191,6.26506960987421,304,0.5,525.878191,-1.31768499575615
304,NA,"positive","idealistic",NA,NA,NA,NA,0,25,25,3,NA,NA,NA,NA,"up",0,0.741913795,"2016_Oct_03_1158",60.00417738,"heterogeneity160929b",1,216,26,0.15,0.741913795,6.60923305717277,304,0.5,741.913795,-0.710944842381915
304,NA,"positive","courageous",NA,NA,NA,NA,0,26,26,15,NA,NA,NA,NA,"up",0,0.639929056,"2016_Oct_03_1158",60.00417738,"heterogeneity160929b",1,216,27,0.175,0.639929056,6.4613573202094,304,0.5,639.929056,-0.997370945473196
304,NA,"positive","trusting",NA,NA,NA,NA,0,28,28,8,NA,NA,NA,NA,"up",0,0.575949907,"2016_Oct_03_1158",60.00417738,"heterogeneity160929b",1,216,29,0.225,0.575949907,6.35602068990015,304,0.5,575.949907,-1.17705761729148
304,NA,"positive","tidy",NA,NA,NA,NA,0,30,30,4,NA,NA,NA,NA,"up",0,0.643913031,"2016_Oct_03_1158",60.00417738,"heterogeneity160929b",1,216,31,0.275,0.643913031,6.4675636719539,304,0.5,643.913031,-0.986181874978413
304,NA,"positive","ambitious",NA,NA,NA,NA,0,32,32,10,NA,NA,NA,NA,"up",0,0.758965015,"2016_Oct_03_1158",60.00417738,"heterogeneity160929b",1,216,33,0.325,0.758965015,6.63195568278915,304,0.5,758.965015,-0.663056162708458
304,NA,"negative","stubborn",NA,NA,NA,NA,0,34,34,39,NA,NA,NA,NA,"up",0,1.225973129,"2016_Oct_03_1158",60.00417738,"heterogeneity160929b",1,216,35,0.375,1.225973129,7.11149019863769,304,-0.5,1225.973129,0.648545117214694
304,NA,"positive","tender",NA,NA,NA,NA,0,37,37,6,NA,NA,NA,NA,"up",0,0.809925079,"2016_Oct_03_1158",60.00417738,"heterogeneity160929b",1,216,38,0.45,0.809925079,6.69694174832682,304,0.5,809.925079,-0.519933841781577
304,NA,"positive","orderly",NA,NA,NA,NA,0,39,39,14,NA,NA,NA,NA,"up",0,0.725775003,"2016_Oct_03_1158",60.00417738,"heterogeneity160929b",1,216,40,0.5,0.725775003,6.58724005356863,304,0.5,725.775003,-0.756270950449523
305,NA,"positive","trusting",NA,NA,NA,NA,0,2,2,8,NA,NA,NA,NA,"up",0,0.642469883,"2016_Oct_03_1228",60.02762158,"heterogeneity160929b",1,217,3,-0.425,0.642469883,6.46531994096255,305,0.5,642.469883,-0.990234983922723
305,NA,"positive","inventive",NA,NA,NA,NA,0,3,3,18,NA,NA,NA,NA,"up",0,0.775605917,"2016_Oct_03_1228",60.02762158,"heterogeneity160929b",1,217,4,-0.4,0.775605917,6.65364455227184,305,0.5,775.605917,-0.616319869038247
305,NA,"positive","courageous",NA,NA,NA,NA,0,4,4,15,NA,NA,NA,NA,"up",0,0.625130892,"2016_Oct_03_1228",60.02762158,"heterogeneity160929b",1,217,5,-0.375,0.625130892,6.43796105500959,305,0.5,625.130892,-1.03893187399041
305,NA,"positive","disciplined",NA,NA,NA,NA,0,8,8,1,NA,NA,NA,NA,"up",0,0.607793093,"2016_Oct_03_1228",60.02762158,"heterogeneity160929b",1,217,9,-0.275,0.607793093,6.40983451648262,305,0.5,607.793093,-1.08762541630315
305,NA,"positive","ambitious",NA,NA,NA,NA,0,9,9,10,NA,NA,NA,NA,"up",0,0.625545025,"2016_Oct_03_1228",60.02762158,"heterogeneity160929b",1,217,10,-0.25,0.625545025,6.43862330973043,305,0.5,625.545025,-1.03776877348621
305,NA,"positive","orderly",NA,NA,NA,NA,0,10,10,14,NA,NA,NA,NA,"up",0,0.642712831,"2016_Oct_03_1228",60.02762158,"heterogeneity160929b",1,217,11,-0.225,0.642712831,6.46569801639143,305,0.5,642.712831,-0.989552659787012
305,NA,"positive","enthusiastic",NA,NA,NA,NA,0,11,11,16,NA,NA,NA,NA,"up",0,0.52448988,"2016_Oct_03_1228",60.02762158,"heterogeneity160929b",1,217,12,-0.2,0.52448988,6.26242613308396,305,0.5,524.48988,-1.32158409393013
305,NA,"negative","moody",NA,NA,NA,NA,0,13,13,30,NA,NA,NA,NA,"up",0,0.643592834,"2016_Oct_03_1228",60.02762158,"heterogeneity160929b",1,217,14,-0.15,0.643592834,6.46706628081137,305,-0.5,643.592834,-0.987081154417972
305,NA,"positive","neat",NA,NA,NA,NA,0,14,14,5,NA,NA,NA,NA,"up",0,0.577285051,"2016_Oct_03_1228",60.02762158,"heterogeneity160929b",1,217,15,-0.125,0.577285051,6.35833616704947,305,0.5,577.285051,-1.17330783966068
305,NA,"negative","forgetful",NA,NA,NA,NA,0,21,21,31,NA,NA,NA,NA,"up",0,0.659074068,"2016_Oct_03_1228",60.02762158,"heterogeneity160929b",1,217,22,0.05,0.659074068,6.49083592272389,305,-0.5,659.074068,-0.943601810653958
305,NA,"positive","outgoing",NA,NA,NA,NA,0,22,22,17,NA,NA,NA,NA,"up",0,0.509203196,"2016_Oct_03_1228",60.02762158,"heterogeneity160929b",1,217,23,0.075,0.509203196,6.23284714317573,305,0.5,509.203196,-1.36451704027329
305,NA,"positive","talented",NA,NA,NA,NA,0,25,25,0,NA,NA,NA,NA,"up",0,0.492809057,"2016_Oct_03_1228",60.02762158,"heterogeneity160929b",1,217,26,0.15,0.492809057,6.20012179070302,305,0.5,492.809057,-1.41056029530683
305,NA,"negative","impulsive",NA,NA,NA,NA,0,27,27,21,NA,NA,NA,NA,"up",0,0.592279911,"2016_Oct_03_1228",60.02762158,"heterogeneity160929b",1,217,28,0.2,0.592279911,6.38397934577374,305,-0.5,592.279911,-1.13119448664029
305,NA,"negative","stubborn",NA,NA,NA,NA,0,29,29,39,NA,NA,NA,NA,"up",0,0.709229946,"2016_Oct_03_1228",60.02762158,"heterogeneity160929b",1,217,30,0.25,0.709229946,6.5641797983509,305,-0.5,709.229946,-0.802738061591839
305,NA,"positive","idealistic",NA,NA,NA,NA,0,31,31,3,NA,NA,NA,NA,"up",0,0.60859108,"2016_Oct_03_1228",60.02762158,"heterogeneity160929b",1,217,32,0.3,0.60859108,6.41114658076657,305,0.5,608.59108,-1.08538425444924
305,NA,"positive","confident",NA,NA,NA,NA,0,33,33,7,NA,NA,NA,NA,"up",0,0.475741148,"2016_Oct_03_1228",60.02762158,"heterogeneity160929b",1,217,34,0.35,0.475741148,6.16487389959223,305,0.5,475.741148,-1.45849584635812
305,NA,"positive","wise",NA,NA,NA,NA,0,34,34,19,NA,NA,NA,NA,"up",0,0.577737093,"2016_Oct_03_1228",60.02762158,"heterogeneity160929b",1,217,35,0.375,0.577737093,6.35911890879244,305,0.5,577.737093,-1.17203827100008
305,NA,"positive","proud",NA,NA,NA,NA,0,37,37,11,NA,NA,NA,NA,"up",0,0.526437044,"2016_Oct_03_1228",60.02762158,"heterogeneity160929b",1,217,38,0.45,0.526437044,6.26613174987552,305,0.5,526.437044,-1.31611544634552
305,NA,"positive","persistent",NA,NA,NA,NA,0,38,38,13,NA,NA,NA,NA,"up",0,0.758597136,"2016_Oct_03_1228",60.02762158,"heterogeneity160929b",1,217,39,0.475,0.758597136,6.63147085387198,305,0.5,758.597136,-0.664089357963085
306,NA,"positive","courageous",NA,NA,NA,NA,0,0,0,15,NA,NA,NA,NA,"up",0,0.925102949,"2016_Oct_03_1240",59.99593762,"heterogeneity160929b",1,218,1,-0.475,0.925102949,6.82990502753568,306,0.5,925.102949,-0.196454576256819
306,NA,"positive","thrifty",NA,NA,NA,NA,0,2,2,2,NA,NA,NA,NA,"up",0,1.126148939,"2016_Oct_03_1240",59.99593762,"heterogeneity160929b",1,218,3,-0.425,1.126148939,7.02655907259892,306,0.5,1126.148939,0.36818695758903
306,NA,"positive","orderly",NA,NA,NA,NA,0,4,4,14,NA,NA,NA,NA,"up",0,1.026129007,"2016_Oct_03_1240",59.99593762,"heterogeneity160929b",1,218,5,-0.375,1.026129007,6.93354875564314,306,0.5,1026.129007,0.0872790527875593
306,NA,"positive","idealistic",NA,NA,NA,NA,0,6,6,3,NA,NA,NA,NA,"up",0,0.858340979,"2016_Oct_03_1240",59.99593762,"heterogeneity160929b",1,218,7,-0.325,0.858340979,6.75500143196287,306,0.5,858.340979,-0.38395685443392
306,NA,"positive","tender",NA,NA,NA,NA,0,7,7,6,NA,NA,NA,NA,"up",0,1.392830133,"2016_Oct_03_1240",59.99593762,"heterogeneity160929b",1,218,8,-0.3,1.392830133,7.23909302305625,306,0.5,1392.830133,1.11716622560628
306,NA,"positive","trusting",NA,NA,NA,NA,0,12,12,8,NA,NA,NA,NA,"up",0,0.776058912,"2016_Oct_03_1240",59.99593762,"heterogeneity160929b",1,218,13,-0.175,0.776058912,6.6542284348274,306,0.5,776.058912,-0.615047623858801
306,NA,"negative","stubborn",NA,NA,NA,NA,0,13,13,39,NA,NA,NA,NA,"up",0,1.358732939,"2016_Oct_03_1240",59.99593762,"heterogeneity160929b",1,218,14,-0.15,1.358732939,7.21430788196284,306,-0.5,1358.732939,1.02140359975137
306,NA,"positive","confident",NA,NA,NA,NA,0,14,14,7,NA,NA,NA,NA,"up",0,0.875502825,"2016_Oct_03_1240",59.99593762,"heterogeneity160929b",1,218,15,-0.125,0.875502825,6.77479837844828,306,0.5,875.502825,-0.335757479509474
306,NA,"positive","brilliant",NA,NA,NA,NA,0,15,15,12,NA,NA,NA,NA,"up",0,1.425448895,"2016_Oct_03_1240",59.99593762,"heterogeneity160929b",1,218,16,-0.1,1.425448895,7.26224205713133,306,0.5,1425.448895,1.20877664672352
306,NA,"positive","outgoing",NA,NA,NA,NA,0,18,18,17,NA,NA,NA,NA,"up",0,0.859223127,"2016_Oct_03_1240",59.99593762,"heterogeneity160929b",1,218,19,-0.025,0.859223127,6.75602864029179,306,0.5,859.223127,-0.38147932479108
306,NA,"positive","disciplined",NA,NA,NA,NA,0,20,20,1,NA,NA,NA,NA,"up",0,0.791656017,"2016_Oct_03_1240",59.99593762,"heterogeneity160929b",1,218,21,0.025,0.791656017,6.67412697549962,306,0.5,791.656017,-0.571242854160311
306,NA,"positive","proud",NA,NA,NA,NA,0,23,23,11,NA,NA,NA,NA,"up",0,0.860286951,"2016_Oct_03_1240",59.99593762,"heterogeneity160929b",1,218,24,0.1,0.860286951,6.7572659975476,306,0.5,860.286951,-0.378491554604258
306,NA,"positive","inventive",NA,NA,NA,NA,0,24,24,18,NA,NA,NA,NA,"up",0,0.975487947,"2016_Oct_03_1240",59.99593762,"heterogeneity160929b",1,218,25,0.125,0.975487947,6.88293780427182,306,0.5,975.487947,-0.0549473392632332
306,NA,"positive","neat",NA,NA,NA,NA,0,26,26,5,NA,NA,NA,NA,"up",0,0.911255836,"2016_Oct_03_1240",59.99593762,"heterogeneity160929b",1,218,27,0.175,0.911255836,6.81482368769194,306,0.5,911.255836,-0.235344459729037
306,NA,"positive","artistic",NA,NA,NA,NA,0,29,29,9,NA,NA,NA,NA,"up",0,0.892500877,"2016_Oct_03_1240",59.99593762,"heterogeneity160929b",1,218,30,0.25,0.892500877,6.79402749628636,306,0.5,892.500877,-0.288018123187712
306,NA,"positive","ambitious",NA,NA,NA,NA,0,31,31,10,NA,NA,NA,NA,"up",0,0.858906031,"2016_Oct_03_1240",59.99593762,"heterogeneity160929b",1,218,32,0.3,0.858906031,6.75565952251956,306,0.5,858.906031,-0.382369895012433
306,NA,"positive","enthusiastic",NA,NA,NA,NA,0,32,32,16,NA,NA,NA,NA,"up",0,0.740658045,"2016_Oct_03_1240",59.99593762,"heterogeneity160929b",1,218,33,0.325,0.740658045,6.60753904104967,306,0.5,740.658045,-0.714471640435072
306,NA,"positive","persistent",NA,NA,NA,NA,0,33,33,13,NA,NA,NA,NA,"up",0,0.775451899,"2016_Oct_03_1240",59.99593762,"heterogeneity160929b",1,218,34,0.35,0.775451899,6.6534459549031,306,0.5,775.451899,-0.616752431556703
306,NA,"positive","talented",NA,NA,NA,NA,0,34,34,0,NA,NA,NA,NA,"up",0,0.792526007,"2016_Oct_03_1240",59.99593762,"heterogeneity160929b",1,218,35,0.375,0.792526007,6.67522532161677,306,0.5,792.526007,-0.568799470494561
306,NA,"positive","tidy",NA,NA,NA,NA,0,37,37,4,NA,NA,NA,NA,"up",0,0.74454999,"2016_Oct_03_1240",59.99593762,"heterogeneity160929b",1,218,38,0.45,0.74454999,6.61277999560528,306,0.5,744.54999,-0.70354103796723
306,NA,"positive","wise",NA,NA,NA,NA,0,38,38,19,NA,NA,NA,NA,"up",0,1.026695013,"2016_Oct_03_1240",59.99593762,"heterogeneity160929b",1,218,39,0.475,1.026695013,6.93410019698329,306,0.5,1026.695013,0.0888686915364148
219,NA,"negative","clumsy",NA,NA,NA,NA,0,1,1,23,NA,NA,NA,NA,"up",0,0.926563025,"2016_Oct_04_1617",60.03303438,"heterogeneity160929b",1,219,2,-0.45,0.926563025,6.83148206823644,219,-0.5,926.563025,-0.192353924698578
219,NA,"negative","worrying",NA,NA,NA,NA,0,2,2,32,NA,NA,NA,NA,"up",0,1.108721018,"2016_Oct_04_1617",60.03303438,"heterogeneity160929b",1,219,3,-0.425,1.108721018,7.01096239393604,219,-0.5,1108.721018,0.319240305904089
219,NA,"positive","brilliant",NA,NA,NA,NA,0,4,4,12,NA,NA,NA,NA,"up",0,0.942203045,"2016_Oct_04_1617",60.03303438,"heterogeneity160929b",1,219,5,-0.375,0.942203045,6.84822079805864,219,0.5,942.203045,-0.148428627396306
219,NA,"negative","irritable",NA,NA,NA,NA,0,9,9,27,NA,NA,NA,NA,"up",0,0.924857855,"2016_Oct_04_1617",60.03303438,"heterogeneity160929b",1,219,10,-0.25,0.924857855,6.82964005543367,219,-0.5,924.857855,-0.197142927474848
219,NA,"positive","orderly",NA,NA,NA,NA,0,10,10,14,NA,NA,NA,NA,"up",0,0.742896795,"2016_Oct_04_1617",60.03303438,"heterogeneity160929b",1,219,11,-0.225,0.742896795,6.61055713197427,219,0.5,742.896795,-0.708184067955276
219,NA,"negative","cynical",NA,NA,NA,NA,0,11,11,37,NA,NA,NA,NA,"up",0,0.826296091,"2016_Oct_04_1617",60.03303438,"heterogeneity160929b",1,219,12,-0.2,0.826296091,6.71695317296861,219,-0.5,826.296091,-0.473955539372815
219,NA,"positive","neat",NA,NA,NA,NA,0,12,12,5,NA,NA,NA,NA,"up",0,0.69451499,"2016_Oct_04_1617",60.03303438,"heterogeneity160929b",1,219,13,-0.175,0.69451499,6.54321374583476,219,0.5,694.51499,-0.844065298838969
219,NA,"positive","disciplined",NA,NA,NA,NA,0,13,13,1,NA,NA,NA,NA,"up",0,1.641513824,"2016_Oct_04_1617",60.03303438,"heterogeneity160929b",1,219,14,-0.15,1.641513824,7.40337415847183,219,0.5,1641.513824,1.81559915992487
219,NA,"negative","stubborn",NA,NA,NA,NA,0,14,14,39,NA,NA,NA,NA,"up",0,0.792322159,"2016_Oct_04_1617",60.03303438,"heterogeneity160929b",1,219,15,-0.125,0.792322159,6.67496807552154,219,-0.5,792.322159,-0.569371981527442
219,NA,"negative","anxious",NA,NA,NA,NA,0,16,16,35,NA,NA,NA,NA,"up",0,0.726224184,"2016_Oct_04_1617",60.03303438,"heterogeneity160929b",1,219,17,-0.075,0.726224184,6.58785876054636,219,-0.5,726.224184,-0.755009416962511
219,NA,"positive","tidy",NA,NA,NA,NA,0,17,17,4,NA,NA,NA,NA,"up",0,0.744406939,"2016_Oct_04_1617",60.03303438,"heterogeneity160929b",1,219,18,-0.05,0.744406939,6.61258784632594,219,0.5,744.406939,-0.703942799455028
219,NA,"positive","persistent",NA,NA,NA,NA,0,19,19,13,NA,NA,NA,NA,"up",0,0.741935015,"2016_Oct_04_1617",60.03303438,"heterogeneity160929b",1,219,20,0,0.741935015,6.60926165846942,219,0.5,741.935015,-0.710885245603346
219,NA,"positive","talented",NA,NA,NA,NA,0,26,26,0,NA,NA,NA,NA,"up",0,1.273655891,"2016_Oct_04_1617",60.03303438,"heterogeneity160929b",1,219,27,0.175,1.273655891,7.14964669839231,219,0.5,1273.655891,0.782463072373544
219,NA,"positive","proud",NA,NA,NA,NA,0,27,27,11,NA,NA,NA,NA,"up",0,0.843729019,"2016_Oct_04_1617",60.03303438,"heterogeneity160929b",1,219,28,0.2,0.843729019,6.7378313755072,219,0.5,843.729019,-0.424994825431969
219,NA,"positive","confident",NA,NA,NA,NA,0,28,28,7,NA,NA,NA,NA,"up",0,0.8423388,"2016_Oct_04_1617",60.03303438,"heterogeneity160929b",1,219,29,0.225,0.8423388,6.73618230860801,219,0.5,842.3388,-0.428899282260686
219,NA,"positive","enthusiastic",NA,NA,NA,NA,0,30,30,16,NA,NA,NA,NA,"up",0,0.857723951,"2016_Oct_04_1617",60.03303438,"heterogeneity160929b",1,219,31,0.275,0.857723951,6.75428231228878,219,0.5,857.723951,-0.38568978945215
219,NA,"positive","ambitious",NA,NA,NA,NA,0,31,31,10,NA,NA,NA,NA,"up",0,0.692232847,"2016_Oct_04_1617",60.03303438,"heterogeneity160929b",1,219,32,0.3,0.692232847,6.53992238312364,219,0.5,692.232847,-0.850474741394753
219,NA,"positive","trusting",NA,NA,NA,NA,0,32,32,8,NA,NA,NA,NA,"up",0,0.82554698,"2016_Oct_04_1617",60.03303438,"heterogeneity160929b",1,219,33,0.325,0.82554698,6.71604617270387,219,0.5,825.54698,-0.476059432039666
219,NA,"negative","moody",NA,NA,NA,NA,0,34,34,30,NA,NA,NA,NA,"up",0,0.760176182,"2016_Oct_04_1617",60.03303438,"heterogeneity160929b",1,219,35,0.375,0.760176182,6.63355022483569,219,-0.5,760.176182,-0.659654576869201
219,NA,"negative","impulsive",NA,NA,NA,NA,0,35,35,21,NA,NA,NA,NA,"up",0,0.775439024,"2016_Oct_04_1617",60.03303438,"heterogeneity160929b",1,219,36,0.4,0.775439024,6.6534293515433,219,-0.5,775.439024,-0.616788591242097
219,NA,"positive","outgoing",NA,NA,NA,NA,0,36,36,17,NA,NA,NA,NA,"up",0,0.825372934,"2016_Oct_04_1617",60.03303438,"heterogeneity160929b",1,219,37,0.425,0.825372934,6.71583532540695,219,0.5,825.372934,-0.476548243581741
219,NA,"negative","tense",NA,NA,NA,NA,0,38,38,26,NA,NA,NA,NA,"up",0,0.727036953,"2016_Oct_04_1617",60.03303438,"heterogeneity160929b",1,219,39,0.475,0.727036953,6.58897730567779,219,-0.5,727.036953,-0.752726739576992
220,NA,"positive","proud",NA,NA,NA,NA,0,0,0,11,NA,NA,NA,NA,"up",0,0.593844891,"2016_Oct_04_1654",59.99773988,"heterogeneity160929b",1,220,1,-0.475,0.593844891,6.38661815900062,220,0.5,593.844891,-1.12679921017823
220,NA,"positive","thrifty",NA,NA,NA,NA,0,1,1,2,NA,NA,NA,NA,"up",0,0.742787838,"2016_Oct_04_1654",59.99773988,"heterogeneity160929b",1,220,2,-0.45,0.742787838,6.61041045616196,220,0.5,742.787838,-0.708490075787629
220,NA,"positive","courageous",NA,NA,NA,NA,0,3,3,15,NA,NA,NA,NA,"up",0,0.908491135,"2016_Oct_04_1654",59.99773988,"heterogeneity160929b",1,220,4,-0.4,0.908491135,6.81178512994602,220,0.5,908.491135,-0.243109175718971
220,NA,"negative","tense",NA,NA,NA,NA,0,5,5,26,NA,NA,NA,NA,"up",0,0.97617197,"2016_Oct_04_1654",59.99773988,"heterogeneity160929b",1,220,6,-0.35,0.97617197,6.8836387696624,220,-0.5,976.17197,-0.0530262474975837
220,NA,"positive","enthusiastic",NA,NA,NA,NA,0,6,6,16,NA,NA,NA,NA,"up",0,0.641052961,"2016_Oct_04_1654",59.99773988,"heterogeneity160929b",1,220,7,-0.325,0.641052961,6.46311207597252,220,0.5,641.052961,-0.994214436641078
220,NA,"negative","irritable",NA,NA,NA,NA,0,7,7,27,NA,NA,NA,NA,"up",0,0.95882988,"2016_Oct_04_1654",59.99773988,"heterogeneity160929b",1,220,8,-0.3,0.95882988,6.86571366602959,220,-0.5,958.82988,-0.101731841166439
220,NA,"positive","tender",NA,NA,NA,NA,0,10,10,6,NA,NA,NA,NA,"up",0,0.759845018,"2016_Oct_04_1654",59.99773988,"heterogeneity160929b",1,220,11,-0.225,0.759845018,6.6331144888009,220,0.5,759.845018,-0.660584657339418
220,NA,"positive","orderly",NA,NA,NA,NA,0,11,11,14,NA,NA,NA,NA,"up",0,0.72636199,"2016_Oct_04_1654",59.99773988,"heterogeneity160929b",1,220,12,-0.2,0.72636199,6.58804849937615,220,0.5,726.36199,-0.7546223861582
220,NA,"positive","idealistic",NA,NA,NA,NA,0,12,12,3,NA,NA,NA,NA,"up",0,0.692070007,"2016_Oct_04_1654",59.99773988,"heterogeneity160929b",1,220,13,-0.175,0.692070007,6.53968711668569,220,0.5,692.070007,-0.850932080670067
220,NA,"positive","wise",NA,NA,NA,NA,0,13,13,19,NA,NA,NA,NA,"up",0,0.54419589,"2016_Oct_04_1654",59.99773988,"heterogeneity160929b",1,220,14,-0.15,0.54419589,6.29930927395017,220,0.5,544.19589,-1.26623938542646
220,NA,"positive","disciplined",NA,NA,NA,NA,0,14,14,1,NA,NA,NA,NA,"up",0,0.874332905,"2016_Oct_04_1654",59.99773988,"heterogeneity160929b",1,220,15,-0.125,0.874332905,6.77346120130158,220,0.5,874.332905,-0.339043222355063
220,NA,"positive","trusting",NA,NA,NA,NA,0,16,16,8,NA,NA,NA,NA,"up",0,0.742572069,"2016_Oct_04_1654",59.99773988,"heterogeneity160929b",1,220,17,-0.075,0.742572069,6.61011992859285,220,0.5,742.572069,-0.709096067178536
220,NA,"positive","artistic",NA,NA,NA,NA,0,17,17,9,NA,NA,NA,NA,"up",0,0.725991964,"2016_Oct_04_1654",59.99773988,"heterogeneity160929b",1,220,18,-0.05,0.725991964,6.58753894589301,220,0.5,725.991964,-0.755661611303665
220,NA,"negative","moody",NA,NA,NA,NA,0,19,19,30,NA,NA,NA,NA,"up",0,1.310304165,"2016_Oct_04_1654",59.99773988,"heterogeneity160929b",1,220,20,0,1.310304165,7.17801457626686,220,-0.5,1310.304165,0.885390455526836
220,NA,"positive","persistent",NA,NA,NA,NA,0,21,21,13,NA,NA,NA,NA,"up",0,0.758481979,"2016_Oct_04_1654",59.99773988,"heterogeneity160929b",1,220,22,0.05,0.758481979,6.631319039772,220,0.5,758.481979,-0.664412778614813
220,NA,"positive","ambitious",NA,NA,NA,NA,0,23,23,10,NA,NA,NA,NA,"up",0,1.041632175,"2016_Oct_04_1654",59.99773988,"heterogeneity160929b",1,220,24,0.1,1.041632175,6.94854416095418,220,0.5,1041.632175,0.130819998612889
220,NA,"positive","brilliant",NA,NA,NA,NA,0,26,26,12,NA,NA,NA,NA,"up",0,0.840034962,"2016_Oct_04_1654",59.99773988,"heterogeneity160929b",1,220,27,0.175,0.840034962,6.73344351239978,220,0.5,840.034962,-0.435369655641684
220,NA,"positive","neat",NA,NA,NA,NA,0,29,29,5,NA,NA,NA,NA,"up",0,0.744418144,"2016_Oct_04_1654",59.99773988,"heterogeneity160929b",1,220,30,0.25,0.744418144,6.61260289846353,220,0.5,744.418144,-0.703911329996788
220,NA,"positive","talented",NA,NA,NA,NA,0,30,30,0,NA,NA,NA,NA,"up",0,0.708742142,"2016_Oct_04_1654",59.99773988,"heterogeneity160929b",1,220,31,0.275,0.708742142,6.56349176785528,220,0.5,708.742142,-0.804108068517997
220,NA,"positive","outgoing",NA,NA,NA,NA,0,31,31,17,NA,NA,NA,NA,"up",0,0.576062918,"2016_Oct_04_1654",59.99773988,"heterogeneity160929b",1,220,32,0.3,0.576062918,6.35621688736933,220,0.5,576.062918,-1.17674022372207
220,NA,"positive","inventive",NA,NA,NA,NA,0,32,32,18,NA,NA,NA,NA,"up",0,1.14221406,"2016_Oct_04_1654",59.99773988,"heterogeneity160929b",1,220,33,0.325,1.14221406,7.04072381573301,220,0.5,1142.21406,0.41330615923468
220,NA,"positive","confident",NA,NA,NA,NA,0,36,36,7,NA,NA,NA,NA,"up",0,0.759021997,"2016_Oct_04_1654",59.99773988,"heterogeneity160929b",1,220,37,0.425,0.759021997,6.63203075853035,220,0.5,759.021997,-0.66289612766433
221,NA,"positive","courageous",NA,NA,NA,NA,0,0,0,15,NA,NA,NA,NA,"up",0,1.375041008,"2016_Oct_04_1710",59.9865848,"heterogeneity160929b",1,221,1,-0.475,1.375041008,7.22623883365594,221,0.5,1375.041008,1.06720512553273
221,NA,"negative","anxious",NA,NA,NA,NA,0,1,1,35,NA,NA,NA,NA,"up",0,1.125902891,"2016_Oct_04_1710",59.9865848,"heterogeneity160929b",1,221,2,-0.45,1.125902891,7.02634056252939,221,-0.5,1125.902891,0.367495927043633
221,NA,"negative","antisocial",NA,NA,NA,NA,0,2,2,33,NA,NA,NA,NA,"up",0,1.591756105,"2016_Oct_04_1710",59.9865848,"heterogeneity160929b",1,221,3,-0.425,1.591756105,7.37259315429107,221,-0.5,1591.756105,1.67585364808039
221,NA,"positive","artistic",NA,NA,NA,NA,0,3,3,9,NA,NA,NA,NA,"up",0,1.14253211,"2016_Oct_04_1710",59.9865848,"heterogeneity160929b",1,221,4,-0.4,1.14253211,7.04100222740624,221,0.5,1142.53211,0.414199408783401
221,NA,"negative","worrying",NA,NA,NA,NA,0,4,4,32,NA,NA,NA,NA,"up",0,1.142591,"2016_Oct_04_1710",59.9865848,"heterogeneity160929b",1,221,5,-0.375,1.142591,7.04105376948707,221,-0.5,1142.591,0.414364802482266
221,NA,"negative","tense",NA,NA,NA,NA,0,6,6,26,NA,NA,NA,NA,"up",0,1.326884985,"2016_Oct_04_1710",59.9865848,"heterogeneity160929b",1,221,7,-0.325,1.326884985,7.19058935762939,221,-0.5,1326.884985,0.931958007743232
221,NA,"positive","disciplined",NA,NA,NA,NA,0,7,7,1,NA,NA,NA,NA,"up",0,0.97460413,"2016_Oct_04_1710",59.9865848,"heterogeneity160929b",1,221,8,-0.3,0.97460413,6.88203136803638,221,0.5,974.60413,-0.0574295563247076
221,NA,"negative","insecure",NA,NA,NA,NA,0,10,10,22,NA,NA,NA,NA,"up",0,1.809293985,"2016_Oct_04_1710",59.9865848,"heterogeneity160929b",1,221,11,-0.225,1.809293985,7.50069198462939,221,-0.5,1809.293985,2.28681297252538
221,NA,"positive","persistent",NA,NA,NA,NA,0,12,12,13,NA,NA,NA,NA,"up",0,1.025079012,"2016_Oct_04_1710",59.9865848,"heterogeneity160929b",1,221,13,-0.175,1.025079012,6.93252497347967,221,0.5,1025.079012,0.0843301216135006
221,NA,"negative","fearful",NA,NA,NA,NA,0,16,16,24,NA,NA,NA,NA,"up",0,1.159566879,"2016_Oct_04_1710",59.9865848,"heterogeneity160929b",1,221,17,-0.075,1.159566879,7.05580183420426,221,-0.5,1159.566879,0.462041885506611
221,NA,"negative","cynical",NA,NA,NA,NA,0,17,17,37,NA,NA,NA,NA,"up",0,1.409457922,"2016_Oct_04_1710",59.9865848,"heterogeneity160929b",1,221,18,-0.05,1.409457922,7.25096045696914,221,-0.5,1409.457922,1.16386569116351
221,NA,"negative","boring",NA,NA,NA,NA,0,19,19,20,NA,NA,NA,NA,"up",0,1.442912102,"2016_Oct_04_1710",59.9865848,"heterogeneity160929b",1,221,20,0,1.442912102,7.27441864354366,221,-0.5,1442.912102,1.25782239981885
221,NA,"positive","tender",NA,NA,NA,NA,0,23,23,6,NA,NA,NA,NA,"up",0,1.926578999,"2016_Oct_04_1710",59.9865848,"heterogeneity160929b",1,221,24,0.1,1.926578999,7.56350116971392,221,0.5,1926.578999,2.616210192545
221,NA,"positive","tidy",NA,NA,NA,NA,0,24,24,4,NA,NA,NA,NA,"up",0,0.910909891,"2016_Oct_04_1710",59.9865848,"heterogeneity160929b",1,221,25,0.125,0.910909891,6.81444398018341,221,0.5,910.909891,-0.236316052922347
221,NA,"positive","idealistic",NA,NA,NA,NA,0,25,25,3,NA,NA,NA,NA,"up",0,1.422923088,"2016_Oct_04_1710",59.9865848,"heterogeneity160929b",1,221,26,0.15,1.422923088,7.26046854743729,221,0.5,1422.923088,1.20168286913224
221,NA,"negative","withdrawn",NA,NA,NA,NA,0,27,27,38,NA,NA,NA,NA,"up",0,1.658904076,"2016_Oct_04_1710",59.9865848,"heterogeneity160929b",1,221,28,0.2,1.658904076,7.41391246814506,221,-0.5,1658.904076,1.86444001749804
221,NA,"positive","neat",NA,NA,NA,NA,0,28,28,5,NA,NA,NA,NA,"up",0,1.011132002,"2016_Oct_04_1710",59.9865848,"heterogeneity160929b",1,221,29,0.225,1.011132002,6.91882577627396,221,0.5,1011.132002,0.0451596754933699
221,NA,"negative","stubborn",NA,NA,NA,NA,0,29,29,39,NA,NA,NA,NA,"up",0,1.275840998,"2016_Oct_04_1710",59.9865848,"heterogeneity160929b",1,221,30,0.25,1.275840998,7.15136084642243,221,-0.5,1275.840998,0.788599987455
221,NA,"positive","orderly",NA,NA,NA,NA,0,30,30,14,NA,NA,NA,NA,"up",0,0.842937946,"2016_Oct_04_1710",59.9865848,"heterogeneity160929b",1,221,31,0.275,0.842937946,6.73689334437903,221,0.5,842.937946,-0.427216569183755
221,NA,"positive","ambitious",NA,NA,NA,NA,0,31,31,10,NA,NA,NA,NA,"up",0,0.975550175,"2016_Oct_04_1710",59.9865848,"heterogeneity160929b",1,221,32,0.3,0.975550175,6.88300159390188,221,0.5,975.550175,-0.054772570727098
221,NA,"positive","proud",NA,NA,NA,NA,0,34,34,11,NA,NA,NA,NA,"up",0,1.210244179,"2016_Oct_04_1710",59.9865848,"heterogeneity160929b",1,221,35,0.375,1.210244179,7.09857741905819,221,0.5,1210.244179,0.604370058295167
221,NA,"positive","trusting",NA,NA,NA,NA,0,35,35,8,NA,NA,NA,NA,"up",0,1.025934935,"2016_Oct_04_1710",59.9865848,"heterogeneity160929b",1,221,36,0.4,1.025934935,6.93335960754049,221,0.5,1025.934935,0.0867339978389054
221,NA,"negative","gullible",NA,NA,NA,NA,0,36,36,34,NA,NA,NA,NA,"up",0,1.275892973,"2016_Oct_04_1710",59.9865848,"heterogeneity160929b",1,221,37,0.425,1.275892973,7.15140158342762,221,-0.5,1275.892973,0.788745960243224
221,NA,"negative","clumsy",NA,NA,NA,NA,0,37,37,23,NA,NA,NA,NA,"up",0,1.44313693,"2016_Oct_04_1710",59.9865848,"heterogeneity160929b",1,221,38,0.45,1.44313693,7.27457444685675,221,-0.5,1443.13693,1.25845383358568
221,NA,"negative","impulsive",NA,NA,NA,NA,0,38,38,21,NA,NA,NA,NA,"up",0,1.658541918,"2016_Oct_04_1710",59.9865848,"heterogeneity160929b",1,221,39,0.475,1.658541918,7.41369413271347,221,-0.5,1658.541918,1.86342288978206
221,NA,"positive","wise",NA,NA,NA,NA,0,39,39,19,NA,NA,NA,NA,"up",0,0.910953999,"2016_Oct_04_1710",59.9865848,"heterogeneity160929b",1,221,40,0.5,0.910953999,6.81449240092467,221,0.5,910.953999,-0.236192174755094
222,NA,"positive","confident",NA,NA,NA,NA,0,1,1,7,NA,NA,NA,NA,"up",0,0.792237043,"2016_Oct_04_1730",59.97397598,"heterogeneity160929b",1,222,2,-0.45,0.792237043,6.67486064375127,222,0.5,792.237043,-0.569611031452262
222,NA,"positive","trusting",NA,NA,NA,NA,0,2,2,8,NA,NA,NA,NA,"up",0,0.858887196,"2016_Oct_04_1730",59.97397598,"heterogeneity160929b",1,222,3,-0.425,0.858887196,6.75563759322131,222,0.5,858.887196,-0.382422793472581
222,NA,"positive","inventive",NA,NA,NA,NA,0,4,4,18,NA,NA,NA,NA,"up",0,1.17550993,"2016_Oct_04_1730",59.97397598,"heterogeneity160929b",1,222,5,-0.375,1.17550993,7.06945731541361,222,0.5,1175.50993,0.50681825120693
222,NA,"positive","courageous",NA,NA,NA,NA,0,9,9,15,NA,NA,NA,NA,"up",0,0.724872112,"2016_Oct_04_1730",59.97397598,"heterogeneity160929b",1,222,10,-0.25,0.724872112,6.58599524205347,222,0.5,724.872112,-0.758806737207247
222,NA,"negative","worrying",NA,NA,NA,NA,0,11,11,32,NA,NA,NA,NA,"up",0,1.092560053,"2016_Oct_04_1730",59.97397598,"heterogeneity160929b",1,222,12,-0.2,1.092560053,6.99627889388009,222,-0.5,1092.560053,0.273851924539063
222,NA,"negative","tense",NA,NA,NA,NA,0,12,12,26,NA,NA,NA,NA,"up",0,1.776128054,"2016_Oct_04_1730",59.97397598,"heterogeneity160929b",1,222,13,-0.175,1.776128054,7.48219102343033,222,-0.5,1776.128054,2.19366581673647
222,NA,"negative","stubborn",NA,NA,NA,NA,0,13,13,39,NA,NA,NA,NA,"up",0,1.37562108,"2016_Oct_04_1730",59.97397598,"heterogeneity160929b",1,222,14,-0.15,1.37562108,7.22666060266285,222,-0.5,1375.62108,1.06883426891341
222,NA,"positive","brilliant",NA,NA,NA,NA,0,14,14,12,NA,NA,NA,NA,"up",0,0.742214918,"2016_Oct_04_1730",59.97397598,"heterogeneity160929b",1,222,15,-0.125,0.742214918,6.60963884812808,222,0.5,742.214918,-0.710099132638606
222,NA,"positive","ambitious",NA,NA,NA,NA,0,16,16,10,NA,NA,NA,NA,"up",0,0.658806801,"2016_Oct_04_1730",59.97397598,"heterogeneity160929b",1,222,17,-0.075,0.658806801,6.49043032156532,222,0.5,658.806801,-0.944352435169405
222,NA,"negative","moody",NA,NA,NA,NA,0,17,17,30,NA,NA,NA,NA,"up",0,0.960172892,"2016_Oct_04_1730",59.97397598,"heterogeneity160929b",1,222,18,-0.05,0.960172892,6.86711336407991,222,-0.5,960.172892,-0.0979599661061437
222,NA,"positive","neat",NA,NA,NA,NA,0,18,18,5,NA,NA,NA,NA,"up",0,0.660830021,"2016_Oct_04_1730",59.97397598,"heterogeneity160929b",1,222,19,-0.025,0.660830021,6.4934966524702,222,0.5,660.830021,-0.938670182844415
222,NA,"positive","wise",NA,NA,NA,NA,0,19,19,19,NA,NA,NA,NA,"up",0,0.644026995,"2016_Oct_04_1730",59.97397598,"heterogeneity160929b",1,222,20,0,0.644026995,6.4677406429277,222,0.5,644.026995,-0.985861804890155
222,NA,"positive","disciplined",NA,NA,NA,NA,0,21,21,1,NA,NA,NA,NA,"up",0,0.858337164,"2016_Oct_04_1730",59.97397598,"heterogeneity160929b",1,222,22,0.05,0.858337164,6.75499698733239,222,0.5,858.337164,-0.383967568934873
222,NA,"positive","tidy",NA,NA,NA,NA,0,22,22,4,NA,NA,NA,NA,"up",0,0.810975075,"2016_Oct_04_1730",59.97397598,"heterogeneity160929b",1,222,23,0.075,0.810975075,6.69823731998098,222,0.5,810.975075,-0.516984907798999
222,NA,"negative","antisocial",NA,NA,NA,NA,0,23,23,33,NA,NA,NA,NA,"up",0,1.441823006,"2016_Oct_04_1730",59.97397598,"heterogeneity160929b",1,222,24,0.1,1.441823006,7.27366356828651,222,-0.5,1441.823006,1.25476365273345
222,NA,"positive","talented",NA,NA,NA,NA,0,24,24,0,NA,NA,NA,NA,"up",0,0.959349155,"2016_Oct_04_1730",59.97397598,"heterogeneity160929b",1,222,25,0.125,0.959349155,6.86625509099901,222,0.5,959.349155,-0.100273447330841
222,NA,"positive","enthusiastic",NA,NA,NA,NA,0,25,25,16,NA,NA,NA,NA,"up",0,0.705557823,"2016_Oct_04_1730",59.97397598,"heterogeneity160929b",1,222,26,0.15,0.705557823,6.55898872824614,222,0.5,705.557823,-0.813051289740237
222,NA,"positive","orderly",NA,NA,NA,NA,0,26,26,14,NA,NA,NA,NA,"up",0,0.842880964,"2016_Oct_04_1730",59.97397598,"heterogeneity160929b",1,222,27,0.175,0.842880964,6.73682574281201,222,0.5,842.880964,-0.427376604227884
222,NA,"negative","forgetful",NA,NA,NA,NA,0,28,28,31,NA,NA,NA,NA,"up",0,1.491522074,"2016_Oct_04_1730",59.97397598,"heterogeneity160929b",1,222,29,0.225,1.491522074,7.30755240371119,222,-0.5,1491.522074,1.39434444211517
222,NA,"positive","persistent",NA,NA,NA,NA,0,30,30,13,NA,NA,NA,NA,"up",0,0.991967916,"2016_Oct_04_1730",59.97397598,"heterogeneity160929b",1,222,31,0.275,0.991967916,6.8996907640199,222,0.5,991.967916,-0.00866302902211835
222,NA,"negative","impulsive",NA,NA,NA,NA,0,32,32,21,NA,NA,NA,NA,"up",0,1.274959087,"2016_Oct_04_1730",59.97397598,"heterogeneity160929b",1,222,33,0.325,1.274959087,7.15066936845022,222,-0.5,1274.959087,0.786123123431224
222,NA,"negative","insecure",NA,NA,NA,NA,0,34,34,22,NA,NA,NA,NA,"up",0,1.709267139,"2016_Oct_04_1730",59.97397598,"heterogeneity160929b",1,222,35,0.375,1.709267139,7.44381998394855,222,-0.5,1709.267139,2.00588564962179
222,NA,"positive","idealistic",NA,NA,NA,NA,0,35,35,3,NA,NA,NA,NA,"up",0,1.191797972,"2016_Oct_04_1730",59.97397598,"heterogeneity160929b",1,222,36,0.4,1.191797972,7.08321834668364,222,0.5,1191.797972,0.55256353077319
222,NA,"negative","anxious",NA,NA,NA,NA,0,36,36,35,NA,NA,NA,NA,"up",0,0.793051958,"2016_Oct_04_1730",59.97397598,"heterogeneity160929b",1,222,37,0.425,0.793051958,6.67588874029552,222,-0.5,793.051958,-0.567322326984423
222,NA,"positive","proud",NA,NA,NA,NA,0,38,38,11,NA,NA,NA,NA,"up",0,0.659780979,"2016_Oct_04_1730",59.97397598,"heterogeneity160929b",1,222,39,0.475,0.659780979,6.49190792994608,222,0.5,659.780979,-0.941616437499624
223,NA,"positive","disciplined",NA,NA,NA,NA,0,5,5,1,NA,NA,NA,NA,"up",0,0.891479015,"2016_Oct_04_1741",60.02109315,"heterogeneity160929b",1,223,6,-0.35,0.891479015,6.7928818980469,223,0.5,891.479015,-0.290888042289599
223,NA,"positive","trusting",NA,NA,NA,NA,0,8,8,8,NA,NA,NA,NA,"up",0,0.742314816,"2016_Oct_04_1741",60.02109315,"heterogeneity160929b",1,223,9,-0.275,0.742314816,6.60977343350938,223,0.5,742.314816,-0.709818567182174
223,NA,"positive","courageous",NA,NA,NA,NA,0,9,9,15,NA,NA,NA,NA,"up",0,0.774888992,"2016_Oct_04_1741",60.02109315,"heterogeneity160929b",1,223,10,-0.25,0.774888992,6.65271978296504,223,0.5,774.888992,-0.61833336670439
223,NA,"positive","inventive",NA,NA,NA,NA,0,11,11,18,NA,NA,NA,NA,"up",0,0.825495958,"2016_Oct_04_1741",60.02109315,"heterogeneity160929b",1,223,12,-0.2,0.825495958,6.71598436692179,223,0.5,825.495958,-0.476202728309042
223,NA,"positive","artistic",NA,NA,NA,NA,0,12,12,9,NA,NA,NA,NA,"up",0,0.609388828,"2016_Oct_04_1741",60.02109315,"heterogeneity160929b",1,223,13,-0.175,0.609388828,6.41245653359721,223,0.5,609.388828,-1.08314376383143
223,NA,"positive","talented",NA,NA,NA,NA,0,15,15,0,NA,NA,NA,NA,"up",0,0.676153898,"2016_Oct_04_1741",60.02109315,"heterogeneity160929b",1,223,16,-0.1,0.676153898,6.51642070989573,223,0.5,676.153898,-0.895632779244645
223,NA,"positive","ambitious",NA,NA,NA,NA,0,18,18,10,NA,NA,NA,NA,"up",0,0.758981943,"2016_Oct_04_1741",60.02109315,"heterogeneity160929b",1,223,19,-0.025,0.758981943,6.6319779865988,223,0.5,758.981943,-0.663008620094528
223,NA,"positive","brilliant",NA,NA,NA,NA,0,19,19,12,NA,NA,NA,NA,"up",0,0.675781012,"2016_Oct_04_1741",60.02109315,"heterogeneity160929b",1,223,20,0,0.675781012,6.51586907681532,223,0.5,675.781012,-0.896680036755177
223,NA,"positive","enthusiastic",NA,NA,NA,NA,0,21,21,16,NA,NA,NA,NA,"up",0,0.691028118,"2016_Oct_04_1741",60.02109315,"heterogeneity160929b",1,223,22,0.05,0.691028118,6.53818051469087,223,0.5,691.028118,-0.853858245987053
223,NA,"positive","persistent",NA,NA,NA,NA,0,22,22,13,NA,NA,NA,NA,"up",0,0.77518487,"2016_Oct_04_1741",60.02109315,"heterogeneity160929b",1,223,23,0.075,0.77518487,6.65310154284223,223,0.5,775.18487,-0.617502387644567
223,NA,"positive","idealistic",NA,NA,NA,NA,0,23,23,3,NA,NA,NA,NA,"up",0,0.741786003,"2016_Oct_04_1741",60.02109315,"heterogeneity160929b",1,223,24,0.1,0.741786003,6.60906079591009,223,0.5,741.786003,-0.711303748674417
223,NA,"positive","wise",NA,NA,NA,NA,0,24,24,19,NA,NA,NA,NA,"up",0,0.727617979,"2016_Oct_04_1741",60.02109315,"heterogeneity160929b",1,223,25,0.125,0.727617979,6.58977615634418,223,0.5,727.617979,-0.751094916868942
223,NA,"positive","outgoing",NA,NA,NA,NA,0,25,25,17,NA,NA,NA,NA,"up",0,0.709259987,"2016_Oct_04_1741",60.02109315,"heterogeneity160929b",1,223,26,0.15,0.709259987,6.56422215466138,223,0.5,709.259987,-0.802653690864931
223,NA,"positive","neat",NA,NA,NA,NA,0,26,26,5,NA,NA,NA,NA,"up",0,0.825477123,"2016_Oct_04_1741",60.02109315,"heterogeneity160929b",1,223,27,0.175,0.825477123,6.7159615500749,223,0.5,825.477123,-0.47625562676919
223,NA,"negative","worrying",NA,NA,NA,NA,0,27,27,32,NA,NA,NA,NA,"up",0,0.842504025,"2016_Oct_04_1741",60.02109315,"heterogeneity160929b",1,223,28,0.2,0.842504025,6.73637843966318,223,-0.5,842.504025,-0.428435244666951
223,NA,"negative","forgetful",NA,NA,NA,NA,0,30,30,31,NA,NA,NA,NA,"up",0,0.742112875,"2016_Oct_04_1741",60.02109315,"heterogeneity160929b",1,223,31,0.275,0.742112875,6.60950135423941,223,-0.5,742.112875,-0.710385722368838
223,NA,"positive","confident",NA,NA,NA,NA,0,32,32,7,NA,NA,NA,NA,"up",0,0.642270803,"2016_Oct_04_1741",60.02109315,"heterogeneity160929b",1,223,33,0.325,0.642270803,6.46501002627897,223,0.5,642.270803,-0.9907941039358
223,NA,"positive","proud",NA,NA,NA,NA,0,33,33,11,NA,NA,NA,NA,"up",0,0.676682949,"2016_Oct_04_1741",60.02109315,"heterogeneity160929b",1,223,34,0.35,0.676682949,6.5172028456398,223,0.5,676.682949,-0.89414692932482
223,NA,"positive","orderly",NA,NA,NA,NA,0,36,36,14,NA,NA,NA,NA,"up",0,0.842890024,"2016_Oct_04_1741",60.02109315,"heterogeneity160929b",1,223,37,0.425,0.842890024,6.73683649160299,223,0.5,842.890024,-0.427351159043443
223,NA,"positive","tender",NA,NA,NA,NA,0,39,39,6,NA,NA,NA,NA,"up",0,0.859266043,"2016_Oct_04_1741",60.02109315,"heterogeneity160929b",1,223,40,0.5,0.859266043,6.7560785864896,223,0.5,859.266043,-0.381358794378777
224,NA,"negative","childish",NA,NA,NA,NA,0,1,1,29,NA,NA,NA,NA,"up",0,0.692532063,"2016_Oct_04_1802",60.00924253,"heterogeneity160929b",1,224,2,-0.45,0.692532063,6.54035453735068,224,-0.5,692.532063,-0.849634387497661
224,NA,"positive","inventive",NA,NA,NA,NA,0,3,3,18,NA,NA,NA,NA,"up",0,0.675531149,"2016_Oct_04_1802",60.00924253,"heterogeneity160929b",1,224,4,-0.4,0.675531149,6.51549926884636,224,0.5,675.531149,-0.897381781801528
224,NA,"positive","wise",NA,NA,NA,NA,0,4,4,19,NA,NA,NA,NA,"up",0,0.57772398,"2016_Oct_04_1802",60.00924253,"heterogeneity160929b",1,224,5,-0.375,0.57772398,6.35909621135969,224,0.5,577.72398,-1.17207509911306
224,NA,"positive","confident",NA,NA,NA,NA,0,5,5,7,NA,NA,NA,NA,"up",0,0.642108917,"2016_Oct_04_1802",60.00924253,"heterogeneity160929b",1,224,6,-0.35,0.642108917,6.46475794194855,224,0.5,642.108917,-0.991248763883746
224,NA,"positive","tidy",NA,NA,NA,NA,0,8,8,4,NA,NA,NA,NA,"up",0,0.594089985,"2016_Oct_04_1802",60.00924253,"heterogeneity160929b",1,224,9,-0.275,0.594089985,6.3870307977882,224,0.5,594.089985,-1.1261108589602
224,NA,"positive","courageous",NA,NA,NA,NA,0,9,9,15,NA,NA,NA,NA,"up",0,0.758076906,"2016_Oct_04_1802",60.00924253,"heterogeneity160929b",1,224,10,-0.25,0.758076906,6.63078483959865,224,0.5,758.076906,-0.665550433934571
224,NA,"negative","moody",NA,NA,NA,NA,0,10,10,30,NA,NA,NA,NA,"up",0,0.810267925,"2016_Oct_04_1802",60.00924253,"heterogeneity160929b",1,224,11,-0.225,0.810267925,6.69736496457856,224,-0.5,810.267925,-0.518970952189435
224,NA,"negative","anxious",NA,NA,NA,NA,0,11,11,35,NA,NA,NA,NA,"up",0,0.726358175,"2016_Oct_04_1802",60.00924253,"heterogeneity160929b",1,224,12,-0.2,0.726358175,6.58804324716022,224,-0.5,726.358175,-0.754633100659154
224,NA,"negative","tense",NA,NA,NA,NA,0,13,13,26,NA,NA,NA,NA,"up",0,0.843548059,"2016_Oct_04_1802",60.00924253,"heterogeneity160929b",1,224,14,-0.15,0.843548059,6.73761687605947,224,-0.5,843.548059,-0.425503055076165
224,NA,"negative","cynical",NA,NA,NA,NA,0,16,16,37,NA,NA,NA,NA,"up",0,0.709623098,"2016_Oct_04_1802",60.00924253,"heterogeneity160929b",1,224,17,-0.075,0.709623098,6.56473398119841,224,-0.5,709.623098,-0.801633886630107
224,NA,"positive","disciplined",NA,NA,NA,NA,0,17,17,1,NA,NA,NA,NA,"up",0,0.774891138,"2016_Oct_04_1802",60.00924253,"heterogeneity160929b",1,224,18,-0.05,0.774891138,6.65272255239015,224,0.5,774.891138,-0.618327339622071
224,NA,"negative","withdrawn",NA,NA,NA,NA,0,21,21,38,NA,NA,NA,NA,"up",0,0.792305946,"2016_Oct_04_1802",60.00924253,"heterogeneity160929b",1,224,22,0.05,0.792305946,6.67494761267609,224,-0.5,792.305946,-0.569417516050106
224,NA,"positive","ambitious",NA,NA,NA,NA,0,24,24,10,NA,NA,NA,NA,"up",0,0.708854914,"2016_Oct_04_1802",60.00924253,"heterogeneity160929b",1,224,25,0.125,0.708854914,6.56365087089484,224,0.5,708.854914,-0.803791346184689
224,NA,"positive","proud",NA,NA,NA,NA,0,26,26,11,NA,NA,NA,NA,"up",0,0.724874973,"2016_Oct_04_1802",60.00924253,"heterogeneity160929b",1,224,27,0.175,0.724874973,6.5859991889488,224,0.5,724.874973,-0.758798702033662
224,NA,"positive","enthusiastic",NA,NA,NA,NA,0,27,27,16,NA,NA,NA,NA,"up",0,0.641152859,"2016_Oct_04_1802",60.00924253,"heterogeneity160929b",1,224,28,0.2,0.641152859,6.4632678980701,224,0.5,641.152859,-0.993933871184646
224,NA,"positive","trusting",NA,NA,NA,NA,0,28,28,8,NA,NA,NA,NA,"up",0,0.776046991,"2016_Oct_04_1802",60.00924253,"heterogeneity160929b",1,224,29,0.225,0.776046991,6.65421307376219,224,0.5,776.046991,-0.615081104216827
224,NA,"positive","outgoing",NA,NA,NA,NA,0,31,31,17,NA,NA,NA,NA,"up",0,0.692505836,"2016_Oct_04_1802",60.00924253,"heterogeneity160929b",1,224,32,0.3,0.692505836,6.54031666546281,224,0.5,692.505836,-0.849708046532134
224,NA,"positive","persistent",NA,NA,NA,NA,0,32,32,13,NA,NA,NA,NA,"up",0,0.724755049,"2016_Oct_04_1802",60.00924253,"heterogeneity160929b",1,224,33,0.325,0.724755049,6.58583373431768,224,0.5,724.755049,-0.759135510896673
