"ID","pracword","valence","word","trials_2.thisRepN","trials_2.thisTrialN","trials_2.thisN","trials_2.thisIndex","trials.thisRepN","trials.thisTrialN","trials.thisN","trials.thisIndex","key_resp_3.keys","key_resp_3.rt","key_resp_4.keys","key_resp_4.rt","response.keys","response.corr","response.rt","date","frameRate","expName","session","participant","trial40","trial40c","rt","logrt","id","valenceE","rtms","idcat","valence2","valcat","val2cat"
202,NA,"negative","insecure",NA,NA,NA,NA,0,0,0,22,NA,NA,NA,NA,"down",0,1.476244926,"2016_Sep_30_1140",59.97534811,"heterogeneity160929b",1,202,1,-0.475,1.476244926,7.29725693041845,202,-0.5,1476.244926,"202",-1,"-0.5","-1"
202,NA,"positive","disciplined",NA,NA,NA,NA,0,1,1,1,NA,NA,NA,NA,"up",0,0.72498703,"2016_Sep_30_1140",59.97534811,"heterogeneity160929b",1,202,2,-0.45,0.72498703,6.58615376503948,202,0.5,724.98703,"202",1,"0.5","1"
202,NA,"negative","irritable",NA,NA,NA,NA,0,2,2,27,NA,NA,NA,NA,"up",0,1.108602047,"2016_Sep_30_1140",59.97534811,"heterogeneity160929b",1,202,3,-0.425,1.108602047,7.01085508345703,202,-0.5,1108.602047,"202",-1,"-0.5","-1"
202,NA,"negative","withdrawn",NA,NA,NA,NA,0,3,3,38,NA,NA,NA,NA,"down",0,1.358779907,"2016_Sep_30_1140",59.97534811,"heterogeneity160929b",1,202,4,-0.4,1.358779907,7.21434244886476,202,-0.5,1358.779907,"202",-1,"-0.5","-1"
202,NA,"positive","trusting",NA,NA,NA,NA,0,4,4,8,NA,NA,NA,NA,"up",0,0.725842953,"2016_Sep_30_1140",59.97534811,"heterogeneity160929b",1,202,5,-0.375,0.725842953,6.58733367324283,202,0.5,725.842953,"202",1,"0.5","1"
202,NA,"positive","talented",NA,NA,NA,NA,0,5,5,0,NA,NA,NA,NA,"up",0,0.592477083,"2016_Sep_30_1140",59.97534811,"heterogeneity160929b",1,202,6,-0.35,0.592477083,6.38431219378024,202,0.5,592.477083,"202",1,"0.5","1"
202,NA,"negative","childish",NA,NA,NA,NA,0,6,6,29,NA,NA,NA,NA,"down",0,1.625715971,"2016_Sep_30_1140",59.97534811,"heterogeneity160929b",1,202,7,-0.325,1.625715971,7.3937035952677,202,-0.5,1625.715971,"202",-1,"-0.5","-1"
202,NA,"negative","messy",NA,NA,NA,NA,0,7,7,36,NA,NA,NA,NA,"down",0,1.510065079,"2016_Sep_30_1140",59.97534811,"heterogeneity160929b",1,202,8,-0.3,1.510065079,7.31990802755575,202,-0.5,1510.065079,"202",-1,"-0.5","-1"
202,NA,"negative","worrying",NA,NA,NA,NA,0,8,8,32,NA,NA,NA,NA,"up",0,0.808880091,"2016_Sep_30_1140",59.97534811,"heterogeneity160929b",1,202,9,-0.275,0.808880091,6.69565068728437,202,-0.5,808.880091,"202",-1,"-0.5","-1"
202,NA,"positive","persistent",NA,NA,NA,NA,0,9,9,13,NA,NA,NA,NA,"up",0,0.757745981,"2016_Sep_30_1140",59.97534811,"heterogeneity160929b",1,202,10,-0.25,0.757745981,6.63034821206374,202,0.5,757.745981,"202",1,"0.5","1"
202,NA,"positive","courageous",NA,NA,NA,NA,0,10,10,15,NA,NA,NA,NA,"up",0,0.591758966,"2016_Sep_30_1140",59.97534811,"heterogeneity160929b",1,202,11,-0.225,0.591758966,6.38309939994809,202,0.5,591.758966,"202",1,"0.5","1"
202,NA,"negative","fearful",NA,NA,NA,NA,0,11,11,24,NA,NA,NA,NA,"down",0,2.126034021,"2016_Sep_30_1140",59.97534811,"heterogeneity160929b",1,202,12,-0.2,2.126034021,7.66201356112569,202,-0.5,2126.034021,"202",-1,"-0.5","-1"
202,NA,"negative","stubborn",NA,NA,NA,NA,0,12,12,39,NA,NA,NA,NA,"up",0,0.709203005,"2016_Sep_30_1140",59.97534811,"heterogeneity160929b",1,202,13,-0.175,0.709203005,6.56414181135972,202,-0.5,709.203005,"202",-1,"-0.5","-1"
202,NA,"positive","proud",NA,NA,NA,NA,0,13,13,11,NA,NA,NA,NA,"up",0,0.576113939,"2016_Sep_30_1140",59.97534811,"heterogeneity160929b",1,202,14,-0.15,0.576113939,6.35630545189781,202,0.5,576.113939,"202",1,"0.5","1"
202,NA,"negative","tense",NA,NA,NA,NA,0,14,14,26,NA,NA,NA,NA,"up",0,0.876847982,"2016_Sep_30_1140",59.97534811,"heterogeneity160929b",1,202,15,-0.125,0.876847982,6.7763336386928,202,-0.5,876.847982,"202",-1,"-0.5","-1"
202,NA,"positive","orderly",NA,NA,NA,NA,0,15,15,14,NA,NA,NA,NA,"up",0,0.792936087,"2016_Sep_30_1140",59.97534811,"heterogeneity160929b",1,202,16,-0.1,0.792936087,6.67574262191767,202,0.5,792.936087,"202",1,"0.5","1"
202,NA,"positive","tidy",NA,NA,NA,NA,0,16,16,4,NA,NA,NA,NA,"up",0,1.444204092,"2016_Sep_30_1140",59.97534811,"heterogeneity160929b",1,202,17,-0.075,1.444204092,7.27531364741564,202,0.5,1444.204092,"202",1,"0.5","1"
202,NA,"positive","confident",NA,NA,NA,NA,0,17,17,7,NA,NA,NA,NA,"up",0,0.575605869,"2016_Sep_30_1140",59.97534811,"heterogeneity160929b",1,202,18,-0.05,0.575605869,6.35542317127812,202,0.5,575.605869,"202",1,"0.5","1"
202,NA,"negative","moody",NA,NA,NA,NA,0,18,18,30,NA,NA,NA,NA,"up",0,0.893532038,"2016_Sep_30_1140",59.97534811,"heterogeneity160929b",1,202,19,-0.025,0.893532038,6.79518219069979,202,-0.5,893.532038,"202",-1,"-0.5","-1"
202,NA,"negative","clumsy",NA,NA,NA,NA,0,19,19,23,NA,NA,NA,NA,"down",0,1.242665052,"2016_Sep_30_1140",59.97534811,"heterogeneity160929b",1,202,20,0,1.242665052,7.1250135877803,202,-0.5,1242.665052,"202",-1,"-0.5","-1"
202,NA,"negative","boring",NA,NA,NA,NA,0,20,20,20,NA,NA,NA,NA,"up",0,1.109902859,"2016_Sep_30_1140",59.97534811,"heterogeneity160929b",1,202,21,0.025,1.109902859,7.01202777606236,202,-0.5,1109.902859,"202",-1,"-0.5","-1"
202,NA,"positive","ambitious",NA,NA,NA,NA,0,21,21,10,NA,NA,NA,NA,"up",0,0.775460005,"2016_Sep_30_1140",59.97534811,"heterogeneity160929b",1,202,22,0.05,0.775460005,6.65345640810806,202,0.5,775.460005,"202",1,"0.5","1"
202,NA,"negative","timid",NA,NA,NA,NA,0,22,22,28,NA,NA,NA,NA,"down",0,1.043532848,"2016_Sep_30_1140",59.97534811,"heterogeneity160929b",1,202,23,0.075,1.043532848,6.95036720469934,202,-0.5,1043.532848,"202",-1,"-0.5","-1"
202,NA,"negative","inhibited",NA,NA,NA,NA,0,23,23,25,NA,NA,NA,NA,"down",0,1.308906078,"2016_Sep_30_1140",59.97534811,"heterogeneity160929b",1,202,24,0.1,1.308906078,7.17694701238075,202,-0.5,1308.906078,"202",-1,"-0.5","-1"
202,NA,"positive","enthusiastic",NA,NA,NA,NA,0,24,24,16,NA,NA,NA,NA,"up",0,1.324153185,"2016_Sep_30_1140",59.97534811,"heterogeneity160929b",1,202,25,0.125,1.324153185,7.18852842844487,202,0.5,1324.153185,"202",1,"0.5","1"
202,NA,"positive","wise",NA,NA,NA,NA,0,25,25,19,NA,NA,NA,NA,"up",0,1.308738947,"2016_Sep_30_1140",59.97534811,"heterogeneity160929b",1,202,26,0.15,1.308738947,7.17681931668586,202,0.5,1308.738947,"202",1,"0.5","1"
202,NA,"positive","thrifty",NA,NA,NA,NA,0,26,26,2,NA,NA,NA,NA,"down",0,1.342797995,"2016_Sep_30_1140",59.97534811,"heterogeneity160929b",1,202,27,0.175,1.342797995,7.20251077195612,202,0.5,1342.797995,"202",1,"0.5","1"
202,NA,"positive","outgoing",NA,NA,NA,NA,0,27,27,17,NA,NA,NA,NA,"up",0,0.608772993,"2016_Sep_30_1140",59.97534811,"heterogeneity160929b",1,202,28,0.2,0.608772993,6.41144544452539,202,0.5,608.772993,"202",1,"0.5","1"
202,NA,"positive","neat",NA,NA,NA,NA,0,28,28,5,NA,NA,NA,NA,"up",0,0.611086845,"2016_Sep_30_1140",59.97534811,"heterogeneity160929b",1,202,29,0.225,0.611086845,6.41523908491413,202,0.5,611.086845,"202",1,"0.5","1"
202,NA,"positive","inventive",NA,NA,NA,NA,0,29,29,18,NA,NA,NA,NA,"down",0,1.092108965,"2016_Sep_30_1140",59.97534811,"heterogeneity160929b",1,202,30,0.25,1.092108965,6.99586593612521,202,0.5,1092.108965,"202",1,"0.5","1"
202,NA,"negative","forgetful",NA,NA,NA,NA,0,30,30,31,NA,NA,NA,NA,"up",0,0.992635012,"2016_Sep_30_1140",59.97534811,"heterogeneity160929b",1,202,31,0.275,0.992635012,6.90036303555161,202,-0.5,992.635012,"202",-1,"-0.5","-1"
202,NA,"negative","antisocial",NA,NA,NA,NA,0,31,31,33,NA,NA,NA,NA,"down",0,1.191838026,"2016_Sep_30_1140",59.97534811,"heterogeneity160929b",1,202,32,0.3,1.191838026,7.08325195416401,202,-0.5,1191.838026,"202",-1,"-0.5","-1"
202,NA,"negative","anxious",NA,NA,NA,NA,0,32,32,35,NA,NA,NA,NA,"up",0,0.926002026,"2016_Sep_30_1140",59.97534811,"heterogeneity160929b",1,202,33,0.325,0.926002026,6.83087642254875,202,-0.5,926.002026,"202",-1,"-0.5","-1"
202,NA,"positive","tender",NA,NA,NA,NA,0,33,33,6,NA,NA,NA,NA,"up",0,0.792806864,"2016_Sep_30_1140",59.97534811,"heterogeneity160929b",1,202,34,0.35,0.792806864,6.67557964089959,202,0.5,792.806864,"202",1,"0.5","1"
202,NA,"positive","idealistic",NA,NA,NA,NA,0,34,34,3,NA,NA,NA,NA,"up",0,0.758482933,"2016_Sep_30_1140",59.97534811,"heterogeneity160929b",1,202,35,0.375,0.758482933,6.63132029754664,202,0.5,758.482933,"202",1,"0.5","1"
202,NA,"positive","brilliant",NA,NA,NA,NA,0,35,35,12,NA,NA,NA,NA,"up",0,0.575559855,"2016_Sep_30_1140",59.97534811,"heterogeneity160929b",1,202,36,0.4,0.575559855,6.35534322796663,202,0.5,575.559855,"202",1,"0.5","1"
202,NA,"negative","cynical",NA,NA,NA,NA,0,36,36,37,NA,NA,NA,NA,"up",0,0.393021107,"2016_Sep_30_1140",59.97534811,"heterogeneity160929b",1,202,37,0.425,0.393021107,5.97386331780621,202,-0.5,393.021107,"202",-1,"-0.5","-1"
202,NA,"negative","gullible",NA,NA,NA,NA,0,37,37,34,NA,NA,NA,NA,"down",0,1.026015997,"2016_Sep_30_1140",59.97534811,"heterogeneity160929b",1,202,38,0.45,1.026015997,6.9334386172271,202,-0.5,1026.015997,"202",-1,"-0.5","-1"
202,NA,"positive","artistic",NA,NA,NA,NA,0,38,38,9,NA,NA,NA,NA,"down",0,1.242034912,"2016_Sep_30_1140",59.97534811,"heterogeneity160929b",1,202,39,0.475,1.242034912,7.12450637159916,202,0.5,1242.034912,"202",1,"0.5","1"
202,NA,"negative","impulsive",NA,NA,NA,NA,0,39,39,21,NA,NA,NA,NA,"up",0,1.642158031,"2016_Sep_30_1140",59.97534811,"heterogeneity160929b",1,202,40,0.5,1.642158031,7.40376652837766,202,-0.5,1642.158031,"202",-1,"-0.5","-1"
204,NA,"positive","artistic",NA,NA,NA,NA,0,0,0,9,NA,NA,NA,NA,"up",0,0.97615695,"2016_Sep_30_1202",60.00452076,"heterogeneity160929b",1,204,1,-0.475,0.97615695,6.88362338291087,204,0.5,976.15695,"204",1,"0.5","1"
204,NA,"negative","gullible",NA,NA,NA,NA,0,1,1,34,NA,NA,NA,NA,"down",0,0.742563009,"2016_Sep_30_1202",60.00452076,"heterogeneity160929b",1,204,2,-0.45,0.742563009,6.61010772768246,204,-0.5,742.563009,"204",-1,"-0.5","-1"
204,NA,"positive","neat",NA,NA,NA,NA,0,2,2,5,NA,NA,NA,NA,"up",0,0.594193935,"2016_Sep_30_1202",60.00452076,"heterogeneity160929b",1,204,3,-0.425,0.594193935,6.38720575597541,204,0.5,594.193935,"204",1,"0.5","1"
204,NA,"negative","impulsive",NA,NA,NA,NA,0,3,3,21,NA,NA,NA,NA,"down",0,0.775370121,"2016_Sep_30_1202",60.00452076,"heterogeneity160929b",1,204,4,-0.4,0.775370121,6.65334049083434,204,-0.5,775.370121,"204",-1,"-0.5","-1"
204,NA,"positive","thrifty",NA,NA,NA,NA,0,4,4,2,NA,NA,NA,NA,"up",0,0.809697151,"2016_Sep_30_1202",60.00452076,"heterogeneity160929b",1,204,5,-0.375,0.809697151,6.69666029009875,204,0.5,809.697151,"204",1,"0.5","1"
204,NA,"positive","ambitious",NA,NA,NA,NA,0,5,5,10,NA,NA,NA,NA,"up",0,0.592213154,"2016_Sep_30_1202",60.00452076,"heterogeneity160929b",1,204,6,-0.35,0.592213154,6.38386662751132,204,0.5,592.213154,"204",1,"0.5","1"
204,NA,"positive","trusting",NA,NA,NA,NA,0,6,6,8,NA,NA,NA,NA,"up",0,0.809190035,"2016_Sep_30_1202",60.00452076,"heterogeneity160929b",1,204,7,-0.325,0.809190035,6.69603379058603,204,0.5,809.190035,"204",1,"0.5","1"
204,NA,"positive","outgoing",NA,NA,NA,NA,0,7,7,17,NA,NA,NA,NA,"down",0,0.842602015,"2016_Sep_30_1202",60.00452076,"heterogeneity160929b",1,204,8,-0.3,0.842602015,6.7364947409496,204,0.5,842.602015,"204",1,"0.5","1"
204,NA,"positive","proud",NA,NA,NA,NA,0,8,8,11,NA,NA,NA,NA,"up",0,0.943104982,"2016_Sep_30_1202",60.00452076,"heterogeneity160929b",1,204,9,-0.275,0.943104982,6.84917760411462,204,0.5,943.104982,"204",1,"0.5","1"
204,NA,"negative","boring",NA,NA,NA,NA,0,9,9,20,NA,NA,NA,NA,"down",0,0.609926224,"2016_Sep_30_1202",60.00452076,"heterogeneity160929b",1,204,10,-0.25,0.609926224,6.41333800559071,204,-0.5,609.926224,"204",-1,"-0.5","-1"
204,NA,"positive","courageous",NA,NA,NA,NA,0,10,10,15,NA,NA,NA,NA,"up",0,1.091324806,"2016_Sep_30_1202",60.00452076,"heterogeneity160929b",1,204,11,-0.225,1.091324806,6.99514765554888,204,0.5,1091.324806,"204",1,"0.5","1"
204,NA,"negative","insecure",NA,NA,NA,NA,0,11,11,22,NA,NA,NA,NA,"down",0,0.875722885,"2016_Sep_30_1202",60.00452076,"heterogeneity160929b",1,204,12,-0.2,0.875722885,6.77504969956572,204,-0.5,875.722885,"204",-1,"-0.5","-1"
204,NA,"positive","tender",NA,NA,NA,NA,0,12,12,6,NA,NA,NA,NA,"up",0,0.709933996,"2016_Sep_30_1202",60.00452076,"heterogeneity160929b",1,204,13,-0.175,0.709933996,6.56517200233372,204,0.5,709.933996,"204",1,"0.5","1"
204,NA,"negative","clumsy",NA,NA,NA,NA,0,13,13,23,NA,NA,NA,NA,"down",0,0.959984064,"2016_Sep_30_1202",60.00452076,"heterogeneity160929b",1,204,14,-0.15,0.959984064,6.8669166843241,204,-0.5,959.984064,"204",-1,"-0.5","-1"
204,NA,"negative","moody",NA,NA,NA,NA,0,14,14,30,NA,NA,NA,NA,"down",0,0.743292093,"2016_Sep_30_1202",60.00452076,"heterogeneity160929b",1,204,15,-0.125,0.743292093,6.61108909397791,204,-0.5,743.292093,"204",-1,"-0.5","-1"
204,NA,"negative","childish",NA,NA,NA,NA,0,15,15,29,NA,NA,NA,NA,"down",0,0.725885868,"2016_Sep_30_1202",60.00452076,"heterogeneity160929b",1,204,16,-0.1,0.725885868,6.58739279585497,204,-0.5,725.885868,"204",-1,"-0.5","-1"
204,NA,"negative","inhibited",NA,NA,NA,NA,0,16,16,25,NA,NA,NA,NA,"down",0,1.058744907,"2016_Sep_30_1202",60.00452076,"heterogeneity160929b",1,204,17,-0.075,1.058744907,6.96483943556508,204,-0.5,1058.744907,"204",-1,"-0.5","-1"
204,NA,"negative","withdrawn",NA,NA,NA,NA,0,17,17,38,NA,NA,NA,NA,"down",0,0.792232037,"2016_Sep_30_1202",60.00452076,"heterogeneity160929b",1,204,18,-0.05,0.792232037,6.67485432491544,204,-0.5,792.232037,"204",-1,"-0.5","-1"
204,NA,"negative","messy",NA,NA,NA,NA,0,18,18,36,NA,NA,NA,NA,"down",0,0.726948023,"2016_Sep_30_1202",60.00452076,"heterogeneity160929b",1,204,19,-0.025,0.726948023,6.58885497979192,204,-0.5,726.948023,"204",-1,"-0.5","-1"
204,NA,"negative","antisocial",NA,NA,NA,NA,0,19,19,33,NA,NA,NA,NA,"down",0,0.858376026,"2016_Sep_30_1202",60.00452076,"heterogeneity160929b",1,204,20,0,0.858376026,6.75504226222191,204,-0.5,858.376026,"204",-1,"-0.5","-1"
204,NA,"positive","inventive",NA,NA,NA,NA,0,20,20,18,NA,NA,NA,NA,"down",0,1.391800165,"2016_Sep_30_1202",60.00452076,"heterogeneity160929b",1,204,21,0.025,1.391800165,7.23835327096226,204,0.5,1391.800165,"204",1,"0.5","1"
204,NA,"negative","timid",NA,NA,NA,NA,0,21,21,28,NA,NA,NA,NA,"down",0,1.176858902,"2016_Sep_30_1202",60.00452076,"heterogeneity160929b",1,204,22,0.05,1.176858902,7.07060422071988,204,-0.5,1176.858902,"204",-1,"-0.5","-1"
204,NA,"positive","brilliant",NA,NA,NA,NA,0,22,22,12,NA,NA,NA,NA,"up",0,0.858991861,"2016_Sep_30_1202",60.00452076,"heterogeneity160929b",1,204,23,0.075,0.858991861,6.75575944696847,204,0.5,858.991861,"204",1,"0.5","1"
204,NA,"negative","forgetful",NA,NA,NA,NA,0,23,23,31,NA,NA,NA,NA,"down",0,0.825510025,"2016_Sep_30_1202",60.00452076,"heterogeneity160929b",1,204,24,0.1,0.825510025,6.7160014074415,204,-0.5,825.510025,"204",-1,"-0.5","-1"
204,NA,"positive","orderly",NA,NA,NA,NA,0,24,24,14,NA,NA,NA,NA,"up",0,0.792859077,"2016_Sep_30_1202",60.00452076,"heterogeneity160929b",1,204,25,0.125,0.792859077,6.67564549714165,204,0.5,792.859077,"204",1,"0.5","1"
204,NA,"negative","fearful",NA,NA,NA,NA,0,25,25,24,NA,NA,NA,NA,"down",0,0.593091011,"2016_Sep_30_1202",60.00452076,"heterogeneity160929b",1,204,26,0.15,0.593091011,6.38534786276962,204,-0.5,593.091011,"204",-1,"-0.5","-1"
204,NA,"positive","persistent",NA,NA,NA,NA,0,26,26,13,NA,NA,NA,NA,"up",0,0.756456137,"2016_Sep_30_1202",60.00452076,"heterogeneity160929b",1,204,27,0.175,0.756456137,6.6286445500537,204,0.5,756.456137,"204",1,"0.5","1"
204,NA,"negative","cynical",NA,NA,NA,NA,0,27,27,37,NA,NA,NA,NA,"up",0,0.909418821,"2016_Sep_30_1202",60.00452076,"heterogeneity160929b",1,204,28,0.2,0.909418821,6.81280573724009,204,-0.5,909.418821,"204",-1,"-0.5","-1"
204,NA,"negative","anxious",NA,NA,NA,NA,0,28,28,35,NA,NA,NA,NA,"down",0,0.676243067,"2016_Sep_30_1202",60.00452076,"heterogeneity160929b",1,204,29,0.225,0.676243067,6.51655257798244,204,-0.5,676.243067,"204",-1,"-0.5","-1"
204,NA,"negative","stubborn",NA,NA,NA,NA,0,29,29,39,NA,NA,NA,NA,"up",0,0.775966883,"2016_Sep_30_1202",60.00452076,"heterogeneity160929b",1,204,30,0.25,0.775966883,6.65410984272616,204,-0.5,775.966883,"204",-1,"-0.5","-1"
204,NA,"positive","enthusiastic",NA,NA,NA,NA,0,30,30,16,NA,NA,NA,NA,"down",0,0.891038895,"2016_Sep_30_1202",60.00452076,"heterogeneity160929b",1,204,31,0.275,0.891038895,6.79238807971669,204,0.5,891.038895,"204",1,"0.5","1"
204,NA,"positive","wise",NA,NA,NA,NA,0,31,31,19,NA,NA,NA,NA,"up",0,0.561015844,"2016_Sep_30_1202",60.00452076,"heterogeneity160929b",1,204,32,0.3,0.561015844,6.32974914754813,204,0.5,561.015844,"204",1,"0.5","1"
204,NA,"negative","irritable",NA,NA,NA,NA,0,32,32,27,NA,NA,NA,NA,"down",0,0.791898966,"2016_Sep_30_1202",60.00452076,"heterogeneity160929b",1,204,33,0.325,0.791898966,6.6744338154951,204,-0.5,791.898966,"204",-1,"-0.5","-1"
204,NA,"positive","disciplined",NA,NA,NA,NA,0,33,33,1,NA,NA,NA,NA,"up",0,0.624965906,"2016_Sep_30_1202",60.00452076,"heterogeneity160929b",1,204,34,0.35,0.624965906,6.43769709784847,204,0.5,624.965906,"204",1,"0.5","1"
204,NA,"positive","tidy",NA,NA,NA,NA,0,34,34,4,NA,NA,NA,NA,"up",0,0.727607012,"2016_Sep_30_1202",60.00452076,"heterogeneity160929b",1,204,35,0.375,0.727607012,6.58976108376081,204,0.5,727.607012,"204",1,"0.5","1"
204,NA,"negative","worrying",NA,NA,NA,NA,0,35,35,32,NA,NA,NA,NA,"up",0,0.909124851,"2016_Sep_30_1202",60.00452076,"heterogeneity160929b",1,204,36,0.4,0.909124851,6.81248243458084,204,-0.5,909.124851,"204",-1,"-0.5","-1"
204,NA,"positive","talented",NA,NA,NA,NA,0,36,36,0,NA,NA,NA,NA,"up",0,0.642563105,"2016_Sep_30_1202",60.00452076,"heterogeneity160929b",1,204,37,0.425,0.642563105,6.46546502984515,204,0.5,642.563105,"204",1,"0.5","1"
204,NA,"positive","confident",NA,NA,NA,NA,0,37,37,7,NA,NA,NA,NA,"up",0,1.04205513,"2016_Sep_30_1202",60.00452076,"heterogeneity160929b",1,204,38,0.45,1.04205513,6.94895012878322,204,0.5,1042.05513,"204",1,"0.5","1"
204,NA,"negative","tense",NA,NA,NA,NA,0,38,38,26,NA,NA,NA,NA,"down",0,0.993720055,"2016_Sep_30_1202",60.00452076,"heterogeneity160929b",1,204,39,0.475,0.993720055,6.90145553218119,204,-0.5,993.720055,"204",-1,"-0.5","-1"
204,NA,"positive","idealistic",NA,NA,NA,NA,0,39,39,3,NA,NA,NA,NA,"up",0,0.674777985,"2016_Sep_30_1202",60.00452076,"heterogeneity160929b",1,204,40,0.5,0.674777985,6.5143837256583,204,0.5,674.777985,"204",1,"0.5","1"
205,NA,"positive","courageous",NA,NA,NA,NA,0,0,0,15,NA,NA,NA,NA,"up",0,0.591831923,"2016_Sep_30_1215",59.98444007,"heterogeneity160929b",1,205,1,-0.475,0.591831923,6.38322268072149,205,0.5,591.831923,"205",1,"0.5","1"
205,NA,"positive","persistent",NA,NA,NA,NA,0,1,1,13,NA,NA,NA,NA,"up",0,0.991534948,"2016_Sep_30_1215",59.98444007,"heterogeneity160929b",1,205,2,-0.45,0.991534948,6.89925419494331,205,0.5,991.534948,"205",1,"0.5","1"
205,NA,"negative","fearful",NA,NA,NA,NA,0,2,2,24,NA,NA,NA,NA,"down",0,1.275992155,"2016_Sep_30_1215",59.98444007,"heterogeneity160929b",1,205,3,-0.425,1.275992155,7.15147931576671,205,-0.5,1275.992155,"205",-1,"-0.5","-1"
205,NA,"positive","idealistic",NA,NA,NA,NA,0,3,3,3,NA,NA,NA,NA,"up",0,0.808661938,"2016_Sep_30_1215",59.98444007,"heterogeneity160929b",1,205,4,-0.4,0.808661938,6.69538095333322,205,0.5,808.661938,"205",1,"0.5","1"
205,NA,"negative","messy",NA,NA,NA,NA,0,4,4,36,NA,NA,NA,NA,"up",0,0.910298824,"2016_Sep_30_1215",59.98444007,"heterogeneity160929b",1,205,5,-0.375,0.910298824,6.81377292362861,205,-0.5,910.298824,"205",-1,"-0.5","-1"
205,NA,"positive","tidy",NA,NA,NA,NA,0,5,5,4,NA,NA,NA,NA,"down",0,0.694205999,"2016_Sep_30_1215",59.98444007,"heterogeneity160929b",1,205,6,-0.35,0.694205999,6.54276874499219,205,0.5,694.205999,"205",1,"0.5","1"
205,NA,"positive","thrifty",NA,NA,NA,NA,0,6,6,2,NA,NA,NA,NA,"down",0,1.059420109,"2016_Sep_30_1215",59.98444007,"heterogeneity160929b",1,205,7,-0.325,1.059420109,6.96547697042924,205,0.5,1059.420109,"205",1,"0.5","1"
205,NA,"positive","wise",NA,NA,NA,NA,0,7,7,19,NA,NA,NA,NA,"up",0,0.693953991,"2016_Sep_30_1215",59.98444007,"heterogeneity160929b",1,205,8,-0.3,0.693953991,6.54240566292012,205,0.5,693.953991,"205",1,"0.5","1"
205,NA,"positive","enthusiastic",NA,NA,NA,NA,0,8,8,16,NA,NA,NA,NA,"up",0,0.624419928,"2016_Sep_30_1215",59.98444007,"heterogeneity160929b",1,205,9,-0.275,0.624419928,6.43682310357081,205,0.5,624.419928,"205",1,"0.5","1"
205,NA,"positive","proud",NA,NA,NA,NA,0,9,9,11,NA,NA,NA,NA,"up",0,0.493678093,"2016_Sep_30_1215",59.98444007,"heterogeneity160929b",1,205,10,-0.25,0.493678093,6.20188367117923,205,0.5,493.678093,"205",1,"0.5","1"
205,NA,"negative","inhibited",NA,NA,NA,NA,0,10,10,25,NA,NA,NA,NA,"down",0,1.02561903,"2016_Sep_30_1215",59.98444007,"heterogeneity160929b",1,205,11,-0.225,1.02561903,6.93305164098646,205,-0.5,1025.61903,"205",-1,"-0.5","-1"
205,NA,"positive","trusting",NA,NA,NA,NA,0,11,11,8,NA,NA,NA,NA,"up",0,0.591995955,"2016_Sep_30_1215",59.98444007,"heterogeneity160929b",1,205,12,-0.2,0.591995955,6.38349980209039,205,0.5,591.995955,"205",1,"0.5","1"
205,NA,"negative","tense",NA,NA,NA,NA,0,12,12,26,NA,NA,NA,NA,"down",0,0.860255003,"2016_Sep_30_1215",59.98444007,"heterogeneity160929b",1,205,13,-0.175,0.860255003,6.75722886041191,205,-0.5,860.255003,"205",-1,"-0.5","-1"
205,NA,"positive","brilliant",NA,NA,NA,NA,0,13,13,12,NA,NA,NA,NA,"up",0,0.558450937,"2016_Sep_30_1215",59.98444007,"heterogeneity160929b",1,205,14,-0.15,0.558450937,6.32516676684379,205,0.5,558.450937,"205",1,"0.5","1"
205,NA,"positive","artistic",NA,NA,NA,NA,0,14,14,9,NA,NA,NA,NA,"up",0,0.659235001,"2016_Sep_30_1215",59.98444007,"heterogeneity160929b",1,205,15,-0.125,0.659235001,6.49108007336289,205,0.5,659.235001,"205",1,"0.5","1"
205,NA,"positive","inventive",NA,NA,NA,NA,0,15,15,18,NA,NA,NA,NA,"up",0,0.608848095,"2016_Sep_30_1215",59.98444007,"heterogeneity160929b",1,205,16,-0.1,0.608848095,6.41156880309865,205,0.5,608.848095,"205",1,"0.5","1"
205,NA,"negative","timid",NA,NA,NA,NA,0,16,16,28,NA,NA,NA,NA,"down",0,0.72619009,"2016_Sep_30_1215",59.98444007,"heterogeneity160929b",1,205,17,-0.075,0.72619009,6.58781181250871,205,-0.5,726.19009,"205",-1,"-0.5","-1"
205,NA,"positive","ambitious",NA,NA,NA,NA,0,17,17,10,NA,NA,NA,NA,"up",0,0.658960104,"2016_Sep_30_1215",59.98444007,"heterogeneity160929b",1,205,18,-0.05,0.658960104,6.49066299245743,205,0.5,658.960104,"205",1,"0.5","1"
205,NA,"negative","anxious",NA,NA,NA,NA,0,18,18,35,NA,NA,NA,NA,"up",0,0.959417105,"2016_Sep_30_1215",59.98444007,"heterogeneity160929b",1,205,19,-0.025,0.959417105,6.8663259177604,205,-0.5,959.417105,"205",-1,"-0.5","-1"
205,NA,"negative","insecure",NA,NA,NA,NA,0,19,19,22,NA,NA,NA,NA,"down",0,0.975620031,"2016_Sep_30_1215",59.98444007,"heterogeneity160929b",1,205,20,0,0.975620031,6.88307319811131,205,-0.5,975.620031,"205",-1,"-0.5","-1"
205,NA,"positive","talented",NA,NA,NA,NA,0,20,20,0,NA,NA,NA,NA,"up",0,0.608618021,"2016_Sep_30_1215",59.98444007,"heterogeneity160929b",1,205,21,0.025,0.608618021,6.41119084760615,205,0.5,608.618021,"205",1,"0.5","1"
205,NA,"negative","boring",NA,NA,NA,NA,0,21,21,20,NA,NA,NA,NA,"down",0,0.609812975,"2016_Sep_30_1215",59.98444007,"heterogeneity160929b",1,205,22,0.05,0.609812975,6.41315231179581,205,-0.5,609.812975,"205",-1,"-0.5","-1"
205,NA,"negative","stubborn",NA,NA,NA,NA,0,22,22,39,NA,NA,NA,NA,"up",0,0.825910091,"2016_Sep_30_1215",59.98444007,"heterogeneity160929b",1,205,23,0.075,0.825910091,6.71648591892825,205,-0.5,825.910091,"205",-1,"-0.5","-1"
205,NA,"positive","orderly",NA,NA,NA,NA,0,23,23,14,NA,NA,NA,NA,"down",0,1.192785978,"2016_Sep_30_1215",59.98444007,"heterogeneity160929b",1,205,24,0.1,1.192785978,7.08404700784823,205,0.5,1192.785978,"205",1,"0.5","1"
205,NA,"negative","childish",NA,NA,NA,NA,0,24,24,29,NA,NA,NA,NA,"down",0,1.159035206,"2016_Sep_30_1215",59.98444007,"heterogeneity160929b",1,205,25,0.125,1.159035206,7.05534321906477,205,-0.5,1159.035206,"205",-1,"-0.5","-1"
205,NA,"positive","confident",NA,NA,NA,NA,0,25,25,7,NA,NA,NA,NA,"up",0,0.673360825,"2016_Sep_30_1215",59.98444007,"heterogeneity160929b",1,205,26,0.15,0.673360825,6.51228133010157,205,0.5,673.360825,"205",1,"0.5","1"
205,NA,"negative","gullible",NA,NA,NA,NA,0,26,26,34,NA,NA,NA,NA,"down",0,0.742149115,"2016_Sep_30_1215",59.98444007,"heterogeneity160929b",1,205,27,0.175,0.742149115,6.60955018658876,205,-0.5,742.149115,"205",-1,"-0.5","-1"
205,NA,"negative","forgetful",NA,NA,NA,NA,0,27,27,31,NA,NA,NA,NA,"down",0,0.959029198,"2016_Sep_30_1215",59.98444007,"heterogeneity160929b",1,205,28,0.2,0.959029198,6.86592152071819,205,-0.5,959.029198,"205",-1,"-0.5","-1"
205,NA,"negative","withdrawn",NA,NA,NA,NA,0,28,28,38,NA,NA,NA,NA,"down",0,0.825516939,"2016_Sep_30_1215",59.98444007,"heterogeneity160929b",1,205,29,0.225,0.825516939,6.7160097828347,205,-0.5,825.516939,"205",-1,"-0.5","-1"
205,NA,"positive","outgoing",NA,NA,NA,NA,0,29,29,17,NA,NA,NA,NA,"up",0,0.625952959,"2016_Sep_30_1215",59.98444007,"heterogeneity160929b",1,205,30,0.25,0.625952959,6.43927522290913,205,0.5,625.952959,"205",1,"0.5","1"
205,NA,"negative","impulsive",NA,NA,NA,NA,0,30,30,21,NA,NA,NA,NA,"up",0,0.608275175,"2016_Sep_30_1215",59.98444007,"heterogeneity160929b",1,205,31,0.275,0.608275175,6.41062737003852,205,-0.5,608.275175,"205",-1,"-0.5","-1"
205,NA,"negative","moody",NA,NA,NA,NA,0,31,31,30,NA,NA,NA,NA,"down",0,0.677009106,"2016_Sep_30_1215",59.98444007,"heterogeneity160929b",1,205,32,0.3,0.677009106,6.5176847233388,205,-0.5,677.009106,"205",-1,"-0.5","-1"
205,NA,"negative","irritable",NA,NA,NA,NA,0,32,32,27,NA,NA,NA,NA,"down",0,0.675136089,"2016_Sep_30_1215",59.98444007,"heterogeneity160929b",1,205,33,0.325,0.675136089,6.51491428388463,205,-0.5,675.136089,"205",-1,"-0.5","-1"
205,NA,"negative","worrying",NA,NA,NA,NA,0,33,33,32,NA,NA,NA,NA,"down",0,0.742599964,"2016_Sep_30_1215",59.98444007,"heterogeneity160929b",1,205,34,0.35,0.742599964,6.61015749326466,205,-0.5,742.599964,"205",-1,"-0.5","-1"
205,NA,"positive","tender",NA,NA,NA,NA,0,34,34,6,NA,NA,NA,NA,"down",0,0.843481064,"2016_Sep_30_1215",59.98444007,"heterogeneity160929b",1,205,35,0.375,0.843481064,6.73753745241572,205,0.5,843.481064,"205",1,"0.5","1"
205,NA,"negative","clumsy",NA,NA,NA,NA,0,35,35,23,NA,NA,NA,NA,"down",0,1.109861851,"2016_Sep_30_1215",59.98444007,"heterogeneity160929b",1,205,36,0.4,1.109861851,7.01199082800221,205,-0.5,1109.861851,"205",-1,"-0.5","-1"
205,NA,"negative","antisocial",NA,NA,NA,NA,0,36,36,33,NA,NA,NA,NA,"down",0,0.875087023,"2016_Sep_30_1215",59.98444007,"heterogeneity160929b",1,205,37,0.425,0.875087023,6.77432333626945,205,-0.5,875.087023,"205",-1,"-0.5","-1"
205,NA,"negative","cynical",NA,NA,NA,NA,0,37,37,37,NA,NA,NA,NA,"up",0,1.476138115,"2016_Sep_30_1215",59.98444007,"heterogeneity160929b",1,205,38,0.45,1.476138115,7.2971845746309,205,-0.5,1476.138115,"205",-1,"-0.5","-1"
205,NA,"positive","neat",NA,NA,NA,NA,0,38,38,5,NA,NA,NA,NA,"down",0,0.743746042,"2016_Sep_30_1215",59.98444007,"heterogeneity160929b",1,205,39,0.475,0.743746042,6.61169963516501,205,0.5,743.746042,"205",1,"0.5","1"
205,NA,"positive","disciplined",NA,NA,NA,NA,0,39,39,1,NA,NA,NA,NA,"down",0,0.858274937,"2016_Sep_30_1215",59.98444007,"heterogeneity160929b",1,205,40,0.5,0.858274937,6.75492448755216,205,0.5,858.274937,"205",1,"0.5","1"
208,NA,"positive","ambitious",NA,NA,NA,NA,0,0,0,10,NA,NA,NA,NA,"up",0,0.692425966,"2016_Sep_30_1301",60.0114749,"heterogeneity160929b",1,208,1,-0.475,0.692425966,6.54020132404314,208,0.5,692.425966,"208",1,"0.5","1"
208,NA,"negative","worrying",NA,NA,NA,NA,0,1,1,32,NA,NA,NA,NA,"down",0,0.909203053,"2016_Sep_30_1301",60.0114749,"heterogeneity160929b",1,208,2,-0.45,0.909203053,6.8125684498698,208,-0.5,909.203053,"208",-1,"-0.5","-1"
208,NA,"positive","confident",NA,NA,NA,NA,0,2,2,7,NA,NA,NA,NA,"up",0,0.675431013,"2016_Sep_30_1301",60.0114749,"heterogeneity160929b",1,208,3,-0.425,0.675431013,6.5153510248718,208,0.5,675.431013,"208",1,"0.5","1"
208,NA,"positive","orderly",NA,NA,NA,NA,0,3,3,14,NA,NA,NA,NA,"up",0,0.726346016,"2016_Sep_30_1301",60.0114749,"heterogeneity160929b",1,208,4,-0.4,0.726346016,6.58802650734481,208,0.5,726.346016,"208",1,"0.5","1"
208,NA,"negative","anxious",NA,NA,NA,NA,0,4,4,35,NA,NA,NA,NA,"down",0,1.009576797,"2016_Sep_30_1301",60.0114749,"heterogeneity160929b",1,208,5,-0.375,1.009576797,6.91728650915359,208,-0.5,1009.576797,"208",-1,"-0.5","-1"
208,NA,"positive","courageous",NA,NA,NA,NA,0,5,5,15,NA,NA,NA,NA,"up",0,0.858274221,"2016_Sep_30_1301",60.0114749,"heterogeneity160929b",1,208,6,-0.35,0.858274221,6.7549236533203,208,0.5,858.274221,"208",1,"0.5","1"
208,NA,"positive","wise",NA,NA,NA,NA,0,6,6,19,NA,NA,NA,NA,"up",0,0.57754302,"2016_Sep_30_1301",60.0114749,"heterogeneity160929b",1,208,7,-0.325,0.57754302,6.35878293312794,208,0.5,577.54302,"208",1,"0.5","1"
208,NA,"positive","neat",NA,NA,NA,NA,0,7,7,5,NA,NA,NA,NA,"down",0,1.39399004,"2016_Sep_30_1301",60.0114749,"heterogeneity160929b",1,208,8,-0.3,1.39399004,7.2399254463882,208,0.5,1393.99004,"208",1,"0.5","1"
208,NA,"positive","brilliant",NA,NA,NA,NA,0,8,8,12,NA,NA,NA,NA,"up",0,0.675653934,"2016_Sep_30_1301",60.0114749,"heterogeneity160929b",1,208,9,-0.275,0.675653934,6.5156810130084,208,0.5,675.653934,"208",1,"0.5","1"
208,NA,"positive","trusting",NA,NA,NA,NA,0,9,9,8,NA,NA,NA,NA,"up",0,0.609398842,"2016_Sep_30_1301",60.0114749,"heterogeneity160929b",1,208,10,-0.25,0.609398842,6.41247296632007,208,0.5,609.398842,"208",1,"0.5","1"
208,NA,"positive","artistic",NA,NA,NA,NA,0,10,10,9,NA,NA,NA,NA,"down",0,1.042484999,"2016_Sep_30_1301",60.0114749,"heterogeneity160929b",1,208,11,-0.225,1.042484999,6.94936256412099,208,0.5,1042.484999,"208",1,"0.5","1"
208,NA,"negative","inhibited",NA,NA,NA,NA,0,11,11,25,NA,NA,NA,NA,"up",0,1.508887053,"2016_Sep_30_1301",60.0114749,"heterogeneity160929b",1,208,12,-0.2,1.508887053,7.31912760705997,208,-0.5,1508.887053,"208",-1,"-0.5","-1"
208,NA,"negative","boring",NA,NA,NA,NA,0,12,12,20,NA,NA,NA,NA,"down",0,1.393176079,"2016_Sep_30_1301",60.0114749,"heterogeneity160929b",1,208,13,-0.175,1.393176079,7.23934136851958,208,-0.5,1393.176079,"208",-1,"-0.5","-1"
208,NA,"positive","outgoing",NA,NA,NA,NA,0,13,13,17,NA,NA,NA,NA,"up",0,0.808970928,"2016_Sep_30_1301",60.0114749,"heterogeneity160929b",1,208,14,-0.15,0.808970928,6.69576298068967,208,0.5,808.970928,"208",1,"0.5","1"
208,NA,"negative","cynical",NA,NA,NA,NA,0,14,14,37,NA,NA,NA,NA,"up",0,1.042997122,"2016_Sep_30_1301",60.0114749,"heterogeneity160929b",1,208,15,-0.125,1.042997122,6.94985369564893,208,-0.5,1042.997122,"208",-1,"-0.5","-1"
208,NA,"negative","insecure",NA,NA,NA,NA,0,15,15,22,NA,NA,NA,NA,"up",0,1.808999062,"2016_Sep_30_1301",60.0114749,"heterogeneity160929b",1,208,16,-0.1,1.808999062,7.50052896687664,208,-0.5,1808.999062,"208",-1,"-0.5","-1"
208,NA,"negative","moody",NA,NA,NA,NA,0,16,16,30,NA,NA,NA,NA,"down",0,1.04351306,"2016_Sep_30_1301",60.0114749,"heterogeneity160929b",1,208,17,-0.075,1.04351306,6.95034824201153,208,-0.5,1043.51306,"208",-1,"-0.5","-1"
208,NA,"negative","childish",NA,NA,NA,NA,0,17,17,29,NA,NA,NA,NA,"up",0,1.559073925,"2016_Sep_30_1301",60.0114749,"heterogeneity160929b",1,208,18,-0.05,1.559073925,7.35184728615037,208,-0.5,1559.073925,"208",-1,"-0.5","-1"
208,NA,"negative","irritable",NA,NA,NA,NA,0,18,18,27,NA,NA,NA,NA,"down",0,1.042222977,"2016_Sep_30_1301",60.0114749,"heterogeneity160929b",1,208,19,-0.025,1.042222977,6.94911118886422,208,-0.5,1042.222977,"208",-1,"-0.5","-1"
208,NA,"negative","messy",NA,NA,NA,NA,0,19,19,36,NA,NA,NA,NA,"down",0,2.359529018,"2016_Sep_30_1301",60.0114749,"heterogeneity160929b",1,208,20,0,2.359529018,7.76621730945912,208,-0.5,2359.529018,"208",-1,"-0.5","-1"
208,NA,"positive","disciplined",NA,NA,NA,NA,0,20,20,1,NA,NA,NA,NA,"up",0,0.691537142,"2016_Sep_30_1301",60.0114749,"heterogeneity160929b",1,208,21,0.025,0.691537142,6.53891686188217,208,0.5,691.537142,"208",1,"0.5","1"
208,NA,"negative","clumsy",NA,NA,NA,NA,0,21,21,23,NA,NA,NA,NA,"up",0,1.343027115,"2016_Sep_30_1301",60.0114749,"heterogeneity160929b",1,208,22,0.05,1.343027115,7.20268138619284,208,-0.5,1343.027115,"208",-1,"-0.5","-1"
208,NA,"positive","proud",NA,NA,NA,NA,0,22,22,11,NA,NA,NA,NA,"up",0,0.71031785,"2016_Sep_30_1301",60.0114749,"heterogeneity160929b",1,208,23,0.075,0.71031785,6.56571254591467,208,0.5,710.31785,"208",1,"0.5","1"
208,NA,"positive","idealistic",NA,NA,NA,NA,0,23,23,3,NA,NA,NA,NA,"down",0,1.325147867,"2016_Sep_30_1301",60.0114749,"heterogeneity160929b",1,208,24,0.1,1.325147867,7.18927932992961,208,0.5,1325.147867,"208",1,"0.5","1"
208,NA,"negative","forgetful",NA,NA,NA,NA,0,24,24,31,NA,NA,NA,NA,"down",0,1.692265034,"2016_Sep_30_1301",60.0114749,"heterogeneity160929b",1,208,25,0.125,1.692265034,7.43382316737939,208,-0.5,1692.265034,"208",-1,"-0.5","-1"
208,NA,"negative","withdrawn",NA,NA,NA,NA,0,25,25,38,NA,NA,NA,NA,"up",0,1.473322153,"2016_Sep_30_1301",60.0114749,"heterogeneity160929b",1,208,26,0.15,1.473322153,7.2952750979133,208,-0.5,1473.322153,"208",-1,"-0.5","-1"
208,NA,"negative","stubborn",NA,NA,NA,NA,0,26,26,39,NA,NA,NA,NA,"up",0,1.342444897,"2016_Sep_30_1301",60.0114749,"heterogeneity160929b",1,208,27,0.175,1.342444897,7.20224778047547,208,-0.5,1342.444897,"208",-1,"-0.5","-1"
208,NA,"positive","tidy",NA,NA,NA,NA,0,27,27,4,NA,NA,NA,NA,"down",0,1.177889824,"2016_Sep_30_1301",60.0114749,"heterogeneity160929b",1,208,28,0.2,1.177889824,7.07147983182393,208,0.5,1177.889824,"208",1,"0.5","1"
208,NA,"positive","talented",NA,NA,NA,NA,0,28,28,0,NA,NA,NA,NA,"down",0,1.425717831,"2016_Sep_30_1301",60.0114749,"heterogeneity160929b",1,208,29,0.225,1.425717831,7.26243070692045,208,0.5,1425.717831,"208",1,"0.5","1"
208,NA,"negative","gullible",NA,NA,NA,NA,0,29,29,34,NA,NA,NA,NA,"down",0,1.609220028,"2016_Sep_30_1301",60.0114749,"heterogeneity160929b",1,208,30,0.25,1.609220028,7.38350488593405,208,-0.5,1609.220028,"208",-1,"-0.5","-1"
208,NA,"negative","timid",NA,NA,NA,NA,0,30,30,28,NA,NA,NA,NA,"down",0,1.29352212,"2016_Sep_30_1301",60.0114749,"heterogeneity160929b",1,208,31,0.275,1.29352212,7.16512410236893,208,-0.5,1293.52212,"208",-1,"-0.5","-1"
208,NA,"negative","tense",NA,NA,NA,NA,0,31,31,26,NA,NA,NA,NA,"down",0,1.576267958,"2016_Sep_30_1301",60.0114749,"heterogeneity160929b",1,208,32,0.3,1.576267958,7.36281528007704,208,-0.5,1576.267958,"208",-1,"-0.5","-1"
208,NA,"positive","thrifty",NA,NA,NA,NA,0,32,32,2,NA,NA,NA,NA,"up",0,1.042336941,"2016_Sep_30_1301",60.0114749,"heterogeneity160929b",1,208,33,0.325,1.042336941,6.94922052992861,208,0.5,1042.336941,"208",1,"0.5","1"
208,NA,"negative","antisocial",NA,NA,NA,NA,0,33,33,33,NA,NA,NA,NA,"down",0,1.425136805,"2016_Sep_30_1301",60.0114749,"heterogeneity160929b",1,208,34,0.35,1.425136805,7.26202309160348,208,-0.5,1425.136805,"208",-1,"-0.5","-1"
208,NA,"negative","impulsive",NA,NA,NA,NA,0,34,34,21,NA,NA,NA,NA,"down",0,1.525610924,"2016_Sep_30_1301",60.0114749,"heterogeneity160929b",1,208,35,0.375,1.525610924,7.33015021472203,208,-0.5,1525.610924,"208",-1,"-0.5","-1"
208,NA,"positive","inventive",NA,NA,NA,NA,0,35,35,18,NA,NA,NA,NA,"up",0,1.725358963,"2016_Sep_30_1301",60.0114749,"heterogeneity160929b",1,208,36,0.4,1.725358963,7.45319040230956,208,0.5,1725.358963,"208",1,"0.5","1"
208,NA,"positive","persistent",NA,NA,NA,NA,0,36,36,13,NA,NA,NA,NA,"up",0,0.825052023,"2016_Sep_30_1301",60.0114749,"heterogeneity160929b",1,208,37,0.425,0.825052023,6.71544644252842,208,0.5,825.052023,"208",1,"0.5","1"
208,NA,"negative","fearful",NA,NA,NA,NA,0,37,37,24,NA,NA,NA,NA,"down",0,0.776310921,"2016_Sep_30_1301",60.0114749,"heterogeneity160929b",1,208,38,0.45,0.776310921,6.65455311132762,208,-0.5,776.310921,"208",-1,"-0.5","-1"
208,NA,"positive","tender",NA,NA,NA,NA,0,38,38,6,NA,NA,NA,NA,"down",0,1.109466076,"2016_Sep_30_1301",60.0114749,"heterogeneity160929b",1,208,39,0.475,1.109466076,7.01163416597009,208,0.5,1109.466076,"208",1,"0.5","1"
208,NA,"positive","enthusiastic",NA,NA,NA,NA,0,39,39,16,NA,NA,NA,NA,"up",0,1.174496889,"2016_Sep_30_1301",60.0114749,"heterogeneity160929b",1,208,40,0.5,1.174496889,7.06859515530874,208,0.5,1174.496889,"208",1,"0.5","1"
210,NA,"positive","enthusiastic",NA,NA,NA,NA,0,0,0,16,NA,NA,NA,NA,"up",0,0.574848175,"2016_Sep_30_1322",60.01173249,"heterogeneity160929b",1,210,1,-0.475,0.574848175,6.35410596245347,210,0.5,574.848175,"210",1,"0.5","1"
210,NA,"negative","moody",NA,NA,NA,NA,0,1,1,30,NA,NA,NA,NA,"up",0,0.743468046,"2016_Sep_30_1322",60.01173249,"heterogeneity160929b",1,210,2,-0.45,0.743468046,6.61132578716897,210,-0.5,743.468046,"210",-1,"-0.5","-1"
210,NA,"positive","inventive",NA,NA,NA,NA,0,2,2,18,NA,NA,NA,NA,"up",0,0.724698067,"2016_Sep_30_1322",60.01173249,"heterogeneity160929b",1,210,3,-0.425,0.724698067,6.58575510880107,210,0.5,724.698067,"210",1,"0.5","1"
210,NA,"positive","tender",NA,NA,NA,NA,0,3,3,6,NA,NA,NA,NA,"up",0,0.493405104,"2016_Sep_30_1322",60.01173249,"heterogeneity160929b",1,210,4,-0.4,0.493405104,6.20133054858979,210,0.5,493.405104,"210",1,"0.5","1"
210,NA,"positive","trusting",NA,NA,NA,NA,0,4,4,8,NA,NA,NA,NA,"up",0,0.55924511,"2016_Sep_30_1322",60.01173249,"heterogeneity160929b",1,210,5,-0.375,0.55924511,6.32658785647864,210,0.5,559.24511,"210",1,"0.5","1"
210,NA,"negative","forgetful",NA,NA,NA,NA,0,5,5,31,NA,NA,NA,NA,"up",0,0.642216921,"2016_Sep_30_1322",60.01173249,"heterogeneity160929b",1,210,6,-0.35,0.642216921,6.46492612979787,210,-0.5,642.216921,"210",-1,"-0.5","-1"
210,NA,"positive","tidy",NA,NA,NA,NA,0,6,6,4,NA,NA,NA,NA,"up",0,1.010924816,"2016_Sep_30_1322",60.01173249,"heterogeneity160929b",1,210,7,-0.325,1.010924816,6.9186208502809,210,0.5,1010.924816,"210",1,"0.5","1"
210,NA,"positive","persistent",NA,NA,NA,NA,0,7,7,13,NA,NA,NA,NA,"up",0,0.741193056,"2016_Sep_30_1322",60.01173249,"heterogeneity160929b",1,210,8,-0.3,0.741193056,6.60826112577585,210,0.5,741.193056,"210",1,"0.5","1"
210,NA,"negative","gullible",NA,NA,NA,NA,0,8,8,34,NA,NA,NA,NA,"up",0,0.959150076,"2016_Sep_30_1322",60.01173249,"heterogeneity160929b",1,210,9,-0.275,0.959150076,6.86604755481917,210,-0.5,959.150076,"210",-1,"-0.5","-1"
210,NA,"negative","insecure",NA,NA,NA,NA,0,9,9,22,NA,NA,NA,NA,"up",0,0.642423153,"2016_Sep_30_1322",60.01173249,"heterogeneity160929b",1,210,10,-0.25,0.642423153,6.4652472033903,210,-0.5,642.423153,"210",-1,"-0.5","-1"
210,NA,"negative","inhibited",NA,NA,NA,NA,0,10,10,25,NA,NA,NA,NA,"up",0,0.892216921,"2016_Sep_30_1322",60.01173249,"heterogeneity160929b",1,210,11,-0.225,0.892216921,6.79370928799291,210,-0.5,892.216921,"210",-1,"-0.5","-1"
210,NA,"negative","withdrawn",NA,NA,NA,NA,0,11,11,38,NA,NA,NA,NA,"down",0,0.875597954,"2016_Sep_30_1322",60.01173249,"heterogeneity160929b",1,210,12,-0.2,0.875597954,6.77490702896256,210,-0.5,875.597954,"210",-1,"-0.5","-1"
210,NA,"positive","neat",NA,NA,NA,NA,0,12,12,5,NA,NA,NA,NA,"up",0,0.894318819,"2016_Sep_30_1322",60.01173249,"heterogeneity160929b",1,210,13,-0.175,0.894318819,6.7960623324048,210,0.5,894.318819,"210",1,"0.5","1"
210,NA,"positive","artistic",NA,NA,NA,NA,0,13,13,9,NA,NA,NA,NA,"up",0,0.992321014,"2016_Sep_30_1322",60.01173249,"heterogeneity160929b",1,210,14,-0.15,0.992321014,6.90004665775935,210,0.5,992.321014,"210",1,"0.5","1"
210,NA,"negative","cynical",NA,NA,NA,NA,0,14,14,37,NA,NA,NA,NA,"up",0,0.776267052,"2016_Sep_30_1322",60.01173249,"heterogeneity160929b",1,210,15,-0.125,0.776267052,6.65449660015617,210,-0.5,776.267052,"210",-1,"-0.5","-1"
210,NA,"negative","messy",NA,NA,NA,NA,0,15,15,36,NA,NA,NA,NA,"down",0,0.826956987,"2016_Sep_30_1322",60.01173249,"heterogeneity160929b",1,210,16,-0.1,0.826956987,6.71775268278837,210,-0.5,826.956987,"210",-1,"-0.5","-1"
210,NA,"positive","thrifty",NA,NA,NA,NA,0,16,16,2,NA,NA,NA,NA,"up",0,0.94282794,"2016_Sep_30_1322",60.01173249,"heterogeneity160929b",1,210,17,-0.075,0.94282794,6.84888380575227,210,0.5,942.82794,"210",1,"0.5","1"
210,NA,"positive","confident",NA,NA,NA,NA,0,17,17,7,NA,NA,NA,NA,"up",0,0.675505877,"2016_Sep_30_1322",60.01173249,"heterogeneity160929b",1,210,18,-0.05,0.675505877,6.51546185758446,210,0.5,675.505877,"210",1,"0.5","1"
210,NA,"negative","irritable",NA,NA,NA,NA,0,18,18,27,NA,NA,NA,NA,"up",0,0.67541194,"2016_Sep_30_1322",60.01173249,"heterogeneity160929b",1,210,19,-0.025,0.67541194,6.515322786208,210,-0.5,675.41194,"210",-1,"-0.5","-1"
210,NA,"positive","ambitious",NA,NA,NA,NA,0,19,19,10,NA,NA,NA,NA,"up",0,0.675139904,"2016_Sep_30_1322",60.01173249,"heterogeneity160929b",1,210,20,0,0.675139904,6.51491993458125,210,0.5,675.139904,"210",1,"0.5","1"
210,NA,"negative","antisocial",NA,NA,NA,NA,0,20,20,33,NA,NA,NA,NA,"down",0,0.825103045,"2016_Sep_30_1322",60.01173249,"heterogeneity160929b",1,210,21,0.025,0.825103045,6.71550828156525,210,-0.5,825.103045,"210",-1,"-0.5","-1"
210,NA,"positive","proud",NA,NA,NA,NA,0,21,21,11,NA,NA,NA,NA,"up",0,0.593598843,"2016_Sep_30_1322",60.01173249,"heterogeneity160929b",1,210,22,0.05,0.593598843,6.38620374272728,210,0.5,593.598843,"210",1,"0.5","1"
210,NA,"negative","timid",NA,NA,NA,NA,0,22,22,28,NA,NA,NA,NA,"down",0,0.743353128,"2016_Sep_30_1322",60.01173249,"heterogeneity160929b",1,210,23,0.075,0.743353128,6.61117120502791,210,-0.5,743.353128,"210",-1,"-0.5","-1"
210,NA,"positive","idealistic",NA,NA,NA,NA,0,23,23,3,NA,NA,NA,NA,"down",0,0.925100088,"2016_Sep_30_1322",60.01173249,"heterogeneity160929b",1,210,24,0.1,0.925100088,6.82990193490212,210,0.5,925.100088,"210",1,"0.5","1"
210,NA,"negative","childish",NA,NA,NA,NA,0,24,24,29,NA,NA,NA,NA,"up",0,1.042363882,"2016_Sep_30_1322",60.01173249,"heterogeneity160929b",1,210,25,0.125,1.042363882,6.94924637632317,210,-0.5,1042.363882,"210",-1,"-0.5","-1"
210,NA,"positive","disciplined",NA,NA,NA,NA,0,25,25,1,NA,NA,NA,NA,"down",0,0.889378071,"2016_Sep_30_1322",60.01173249,"heterogeneity160929b",1,210,26,0.15,0.889378071,6.7905224218248,210,0.5,889.378071,"210",1,"0.5","1"
210,NA,"positive","courageous",NA,NA,NA,NA,0,26,26,15,NA,NA,NA,NA,"up",0,0.575269938,"2016_Sep_30_1322",60.01173249,"heterogeneity160929b",1,210,27,0.175,0.575269938,6.35483938802801,210,0.5,575.269938,"210",1,"0.5","1"
210,NA,"negative","boring",NA,NA,NA,NA,0,27,27,20,NA,NA,NA,NA,"down",0,0.859935999,"2016_Sep_30_1322",60.01173249,"heterogeneity160929b",1,210,28,0.2,0.859935999,6.75685796671082,210,-0.5,859.935999,"210",-1,"-0.5","-1"
210,NA,"negative","tense",NA,NA,NA,NA,0,28,28,26,NA,NA,NA,NA,"down",0,1.010284185,"2016_Sep_30_1322",60.01173249,"heterogeneity160929b",1,210,29,0.225,1.010284185,6.91798694154496,210,-0.5,1010.284185,"210",-1,"-0.5","-1"
210,NA,"negative","stubborn",NA,NA,NA,NA,0,29,29,39,NA,NA,NA,NA,"down",0,0.67595005,"2016_Sep_30_1322",60.01173249,"heterogeneity160929b",1,210,30,0.25,0.67595005,6.51611918278038,210,-0.5,675.95005,"210",-1,"-0.5","-1"
210,NA,"negative","clumsy",NA,NA,NA,NA,0,30,30,23,NA,NA,NA,NA,"down",0,0.743194103,"2016_Sep_30_1322",60.01173249,"heterogeneity160929b",1,210,31,0.275,0.743194103,6.61095725286104,210,-0.5,743.194103,"210",-1,"-0.5","-1"
210,NA,"positive","brilliant",NA,NA,NA,NA,0,31,31,12,NA,NA,NA,NA,"up",0,0.858911991,"2016_Sep_30_1322",60.01173249,"heterogeneity160929b",1,210,32,0.3,0.858911991,6.75566646155492,210,0.5,858.911991,"210",1,"0.5","1"
210,NA,"positive","talented",NA,NA,NA,NA,0,32,32,0,NA,NA,NA,NA,"up",0,0.725353956,"2016_Sep_30_1322",60.01173249,"heterogeneity160929b",1,210,33,0.325,0.725353956,6.58665975088884,210,0.5,725.353956,"210",1,"0.5","1"
210,NA,"negative","anxious",NA,NA,NA,NA,0,33,33,35,NA,NA,NA,NA,"down",0,0.892910004,"2016_Sep_30_1322",60.01173249,"heterogeneity160929b",1,210,34,0.35,0.892910004,6.79448579640262,210,-0.5,892.910004,"210",-1,"-0.5","-1"
210,NA,"negative","worrying",NA,NA,NA,NA,0,34,34,32,NA,NA,NA,NA,"down",0,0.742726088,"2016_Sep_30_1322",60.01173249,"heterogeneity160929b",1,210,35,0.375,0.742726088,6.61032731995037,210,-0.5,742.726088,"210",-1,"-0.5","-1"
210,NA,"positive","wise",NA,NA,NA,NA,0,35,35,19,NA,NA,NA,NA,"down",0,0.877803087,"2016_Sep_30_1322",60.01173249,"heterogeneity160929b",1,210,36,0.4,0.877803087,6.77742229399436,210,0.5,877.803087,"210",1,"0.5","1"
210,NA,"negative","fearful",NA,NA,NA,NA,0,36,36,24,NA,NA,NA,NA,"down",0,0.959407091,"2016_Sep_30_1322",60.01173249,"heterogeneity160929b",1,210,37,0.425,0.959407091,6.86631548011841,210,-0.5,959.407091,"210",-1,"-0.5","-1"
210,NA,"negative","impulsive",NA,NA,NA,NA,0,37,37,21,NA,NA,NA,NA,"down",0,0.842167139,"2016_Sep_30_1322",60.01173249,"heterogeneity160929b",1,210,38,0.45,0.842167139,6.73597849691863,210,-0.5,842.167139,"210",-1,"-0.5","-1"
210,NA,"positive","outgoing",NA,NA,NA,NA,0,38,38,17,NA,NA,NA,NA,"up",0,0.608871937,"2016_Sep_30_1322",60.01173249,"heterogeneity160929b",1,210,39,0.475,0.608871937,6.41160796152485,210,0.5,608.871937,"210",1,"0.5","1"
210,NA,"positive","orderly",NA,NA,NA,NA,0,39,39,14,NA,NA,NA,NA,"down",0,0.876199007,"2016_Sep_30_1322",60.01173249,"heterogeneity160929b",1,210,40,0.5,0.876199007,6.77559324207626,210,0.5,876.199007,"210",1,"0.5","1"
304,NA,"negative","worrying",NA,NA,NA,NA,0,0,0,32,NA,NA,NA,NA,"up",0,0.926167965,"2016_Oct_03_1158",60.00417738,"heterogeneity160929b",1,216,1,-0.475,0.926167965,6.83105560588641,304,-0.5,926.167965,"304",-1,"-0.5","-1"
304,NA,"positive","brilliant",NA,NA,NA,NA,0,1,1,12,NA,NA,NA,NA,"up",0,0.642183065,"2016_Oct_03_1158",60.00417738,"heterogeneity160929b",1,216,2,-0.45,0.642183065,6.46487341101808,304,0.5,642.183065,"304",1,"0.5","1"
304,NA,"positive","confident",NA,NA,NA,NA,0,2,2,7,NA,NA,NA,NA,"up",0,0.591973066,"2016_Oct_03_1158",60.00417738,"heterogeneity160929b",1,216,3,-0.425,0.591973066,6.38346113722738,304,0.5,591.973066,"304",1,"0.5","1"
304,NA,"positive","outgoing",NA,NA,NA,NA,0,3,3,17,NA,NA,NA,NA,"up",0,0.592640877,"2016_Oct_03_1158",60.00417738,"heterogeneity160929b",1,216,4,-0.4,0.592640877,6.38458861183578,304,0.5,592.640877,"304",1,"0.5","1"
304,NA,"positive","neat",NA,NA,NA,NA,0,4,4,5,NA,NA,NA,NA,"up",0,0.511008978,"2016_Oct_03_1158",60.00417738,"heterogeneity160929b",1,216,5,-0.375,0.511008978,6.23638715952099,304,0.5,511.008978,"304",1,"0.5","1"
304,NA,"negative","insecure",NA,NA,NA,NA,0,5,5,22,NA,NA,NA,NA,"down",0,1.09242487,"2016_Oct_03_1158",60.00417738,"heterogeneity160929b",1,216,6,-0.35,1.09242487,6.99615515572634,304,-0.5,1092.42487,"304",-1,"-0.5","-1"
304,NA,"positive","wise",NA,NA,NA,NA,0,6,6,19,NA,NA,NA,NA,"up",0,0.710835934,"2016_Oct_03_1158",60.00417738,"heterogeneity160929b",1,216,7,-0.325,0.710835934,6.56644164930768,304,0.5,710.835934,"304",1,"0.5","1"
304,NA,"negative","fearful",NA,NA,NA,NA,0,7,7,24,NA,NA,NA,NA,"down",0,0.792317867,"2016_Oct_03_1158",60.00417738,"heterogeneity160929b",1,216,8,-0.3,0.792317867,6.6749626585184,304,-0.5,792.317867,"304",-1,"-0.5","-1"
304,NA,"positive","proud",NA,NA,NA,NA,0,8,8,11,NA,NA,NA,NA,"up",0,0.560127974,"2016_Oct_03_1158",60.00417738,"heterogeneity160929b",1,216,9,-0.275,0.560127974,6.32816528262133,304,0.5,560.127974,"304",1,"0.5","1"
304,NA,"negative","moody",NA,NA,NA,NA,0,9,9,30,NA,NA,NA,NA,"down",0,0.827008963,"2016_Oct_03_1158",60.00417738,"heterogeneity160929b",1,216,10,-0.25,0.827008963,6.71781553293352,304,-0.5,827.008963,"304",-1,"-0.5","-1"
304,NA,"positive","persistent",NA,NA,NA,NA,0,10,10,13,NA,NA,NA,NA,"up",0,0.691506147,"2016_Oct_03_1158",60.00417738,"heterogeneity160929b",1,216,11,-0.225,0.691506147,6.53887204043624,304,0.5,691.506147,"304",1,"0.5","1"
304,NA,"negative","messy",NA,NA,NA,NA,0,11,11,36,NA,NA,NA,NA,"down",0,0.660226107,"2016_Oct_03_1158",60.00417738,"heterogeneity160929b",1,216,12,-0.2,0.660226107,6.4925823627148,304,-0.5,660.226107,"304",-1,"-0.5","-1"
304,NA,"positive","enthusiastic",NA,NA,NA,NA,0,12,12,16,NA,NA,NA,NA,"up",0,0.757594109,"2016_Oct_03_1158",60.00417738,"heterogeneity160929b",1,216,13,-0.175,0.757594109,6.63014776597046,304,0.5,757.594109,"304",1,"0.5","1"
304,NA,"negative","forgetful",NA,NA,NA,NA,0,13,13,31,NA,NA,NA,NA,"down",0,0.708871841,"2016_Oct_03_1158",60.00417738,"heterogeneity160929b",1,216,14,-0.15,0.708871841,6.56367474996736,304,-0.5,708.871841,"304",-1,"-0.5","-1"
304,NA,"negative","irritable",NA,NA,NA,NA,0,14,14,27,NA,NA,NA,NA,"down",0,0.70855093,"2016_Oct_03_1158",60.00417738,"heterogeneity160929b",1,216,15,-0.125,0.70855093,6.56322194080971,304,-0.5,708.55093,"304",-1,"-0.5","-1"
304,NA,"negative","gullible",NA,NA,NA,NA,0,15,15,34,NA,NA,NA,NA,"up",0,0.825896978,"2016_Oct_03_1158",60.00417738,"heterogeneity160929b",1,216,16,-0.1,0.825896978,6.71647004177135,304,-0.5,825.896978,"304",-1,"-0.5","-1"
304,NA,"negative","tense",NA,NA,NA,NA,0,16,16,26,NA,NA,NA,NA,"up",0,0.610330105,"2016_Oct_03_1158",60.00417738,"heterogeneity160929b",1,216,17,-0.075,0.610330105,6.4139999665331,304,-0.5,610.330105,"304",-1,"-0.5","-1"
304,NA,"negative","childish",NA,NA,NA,NA,0,17,17,29,NA,NA,NA,NA,"down",0,0.809455872,"2016_Oct_03_1158",60.00417738,"heterogeneity160929b",1,216,18,-0.05,0.809455872,6.69636225896968,304,-0.5,809.455872,"304",-1,"-0.5","-1"
304,NA,"positive","artistic",NA,NA,NA,NA,0,18,18,9,NA,NA,NA,NA,"up",0,0.542662859,"2016_Oct_03_1158",60.00417738,"heterogeneity160929b",1,216,19,-0.025,0.542662859,6.29648824128499,304,0.5,542.662859,"304",1,"0.5","1"
304,NA,"positive","talented",NA,NA,NA,NA,0,19,19,0,NA,NA,NA,NA,"up",0,0.525878191,"2016_Oct_03_1158",60.00417738,"heterogeneity160929b",1,216,20,0,0.525878191,6.26506960987421,304,0.5,525.878191,"304",1,"0.5","1"
304,NA,"negative","cynical",NA,NA,NA,NA,0,20,20,37,NA,NA,NA,NA,"down",0,0.692718029,"2016_Oct_03_1158",60.00417738,"heterogeneity160929b",1,216,21,0.025,0.692718029,6.54062303183004,304,-0.5,692.718029,"304",-1,"-0.5","-1"
304,NA,"positive","disciplined",NA,NA,NA,NA,0,21,21,1,NA,NA,NA,NA,"down",0,0.674989939,"2016_Oct_03_1158",60.00417738,"heterogeneity160929b",1,216,22,0.05,0.674989939,6.51469778557626,304,0.5,674.989939,"304",1,"0.5","1"
304,NA,"negative","impulsive",NA,NA,NA,NA,0,22,22,21,NA,NA,NA,NA,"down",0,0.742305994,"2016_Oct_03_1158",60.00417738,"heterogeneity160929b",1,216,23,0.075,0.742305994,6.60976154899323,304,-0.5,742.305994,"304",-1,"-0.5","-1"
304,NA,"negative","anxious",NA,NA,NA,NA,0,23,23,35,NA,NA,NA,NA,"down",0,0.826192141,"2016_Oct_03_1158",60.00417738,"heterogeneity160929b",1,216,24,0.1,0.826192141,6.71682736269278,304,-0.5,826.192141,"304",-1,"-0.5","-1"
304,NA,"negative","clumsy",NA,NA,NA,NA,0,24,24,23,NA,NA,NA,NA,"down",0,0.676637888,"2016_Oct_03_1158",60.00417738,"heterogeneity160929b",1,216,25,0.125,0.676637888,6.51713625241403,304,-0.5,676.637888,"304",-1,"-0.5","-1"
304,NA,"positive","idealistic",NA,NA,NA,NA,0,25,25,3,NA,NA,NA,NA,"up",0,0.741913795,"2016_Oct_03_1158",60.00417738,"heterogeneity160929b",1,216,26,0.15,0.741913795,6.60923305717277,304,0.5,741.913795,"304",1,"0.5","1"
304,NA,"positive","courageous",NA,NA,NA,NA,0,26,26,15,NA,NA,NA,NA,"up",0,0.639929056,"2016_Oct_03_1158",60.00417738,"heterogeneity160929b",1,216,27,0.175,0.639929056,6.4613573202094,304,0.5,639.929056,"304",1,"0.5","1"
304,NA,"negative","timid",NA,NA,NA,NA,0,27,27,28,NA,NA,NA,NA,"down",0,0.710259914,"2016_Oct_03_1158",60.00417738,"heterogeneity160929b",1,216,28,0.2,0.710259914,6.56563097910221,304,-0.5,710.259914,"304",-1,"-0.5","-1"
304,NA,"positive","trusting",NA,NA,NA,NA,0,28,28,8,NA,NA,NA,NA,"up",0,0.575949907,"2016_Oct_03_1158",60.00417738,"heterogeneity160929b",1,216,29,0.225,0.575949907,6.35602068990015,304,0.5,575.949907,"304",1,"0.5","1"
304,NA,"negative","antisocial",NA,NA,NA,NA,0,29,29,33,NA,NA,NA,NA,"down",0,0.675153017,"2016_Oct_03_1158",60.00417738,"heterogeneity160929b",1,216,30,0.25,0.675153017,6.51493935703367,304,-0.5,675.153017,"304",-1,"-0.5","-1"
304,NA,"positive","tidy",NA,NA,NA,NA,0,30,30,4,NA,NA,NA,NA,"up",0,0.643913031,"2016_Oct_03_1158",60.00417738,"heterogeneity160929b",1,216,31,0.275,0.643913031,6.4675636719539,304,0.5,643.913031,"304",1,"0.5","1"
304,NA,"negative","inhibited",NA,NA,NA,NA,0,31,31,25,NA,NA,NA,NA,"down",0,0.708977938,"2016_Oct_03_1158",60.00417738,"heterogeneity160929b",1,216,32,0.3,0.708977938,6.56382440898169,304,-0.5,708.977938,"304",-1,"-0.5","-1"
304,NA,"positive","ambitious",NA,NA,NA,NA,0,32,32,10,NA,NA,NA,NA,"up",0,0.758965015,"2016_Oct_03_1158",60.00417738,"heterogeneity160929b",1,216,33,0.325,0.758965015,6.63195568278915,304,0.5,758.965015,"304",1,"0.5","1"
304,NA,"negative","withdrawn",NA,NA,NA,NA,0,33,33,38,NA,NA,NA,NA,"down",0,0.808465958,"2016_Oct_03_1158",60.00417738,"heterogeneity160929b",1,216,34,0.35,0.808465958,6.69513857299775,304,-0.5,808.465958,"304",-1,"-0.5","-1"
304,NA,"negative","stubborn",NA,NA,NA,NA,0,34,34,39,NA,NA,NA,NA,"up",0,1.225973129,"2016_Oct_03_1158",60.00417738,"heterogeneity160929b",1,216,35,0.375,1.225973129,7.11149019863769,304,-0.5,1225.973129,"304",-1,"-0.5","-1"
304,NA,"positive","thrifty",NA,NA,NA,NA,0,35,35,2,NA,NA,NA,NA,"down",0,0.892827988,"2016_Oct_03_1158",60.00417738,"heterogeneity160929b",1,216,36,0.4,0.892827988,6.794393939702,304,0.5,892.827988,"304",1,"0.5","1"
304,NA,"positive","inventive",NA,NA,NA,NA,0,36,36,18,NA,NA,NA,NA,"down",0,0.709017038,"2016_Oct_03_1158",60.00417738,"heterogeneity160929b",1,216,37,0.425,0.709017038,6.56387955727301,304,0.5,709.017038,"304",1,"0.5","1"
304,NA,"positive","tender",NA,NA,NA,NA,0,37,37,6,NA,NA,NA,NA,"up",0,0.809925079,"2016_Oct_03_1158",60.00417738,"heterogeneity160929b",1,216,38,0.45,0.809925079,6.69694174832682,304,0.5,809.925079,"304",1,"0.5","1"
304,NA,"negative","boring",NA,NA,NA,NA,0,38,38,20,NA,NA,NA,NA,"down",0,0.643128872,"2016_Oct_03_1158",60.00417738,"heterogeneity160929b",1,216,39,0.475,0.643128872,6.46634512717272,304,-0.5,643.128872,"304",-1,"-0.5","-1"
304,NA,"positive","orderly",NA,NA,NA,NA,0,39,39,14,NA,NA,NA,NA,"up",0,0.725775003,"2016_Oct_03_1158",60.00417738,"heterogeneity160929b",1,216,40,0.5,0.725775003,6.58724005356863,304,0.5,725.775003,"304",1,"0.5","1"
305,NA,"negative","tense",NA,NA,NA,NA,0,0,0,26,NA,NA,NA,NA,"down",0,0.810469866,"2016_Oct_03_1228",60.02762158,"heterogeneity160929b",1,217,1,-0.475,0.810469866,6.69761416096574,305,-0.5,810.469866,"305",-1,"-0.5","-1"
305,NA,"negative","irritable",NA,NA,NA,NA,0,1,1,27,NA,NA,NA,NA,"down",0,0.658998966,"2016_Oct_03_1228",60.02762158,"heterogeneity160929b",1,217,2,-0.45,0.658998966,6.49072196545727,305,-0.5,658.998966,"305",-1,"-0.5","-1"
305,NA,"positive","trusting",NA,NA,NA,NA,0,2,2,8,NA,NA,NA,NA,"up",0,0.642469883,"2016_Oct_03_1228",60.02762158,"heterogeneity160929b",1,217,3,-0.425,0.642469883,6.46531994096255,305,0.5,642.469883,"305",1,"0.5","1"
305,NA,"positive","inventive",NA,NA,NA,NA,0,3,3,18,NA,NA,NA,NA,"up",0,0.775605917,"2016_Oct_03_1228",60.02762158,"heterogeneity160929b",1,217,4,-0.4,0.775605917,6.65364455227184,305,0.5,775.605917,"305",1,"0.5","1"
305,NA,"positive","courageous",NA,NA,NA,NA,0,4,4,15,NA,NA,NA,NA,"up",0,0.625130892,"2016_Oct_03_1228",60.02762158,"heterogeneity160929b",1,217,5,-0.375,0.625130892,6.43796105500959,305,0.5,625.130892,"305",1,"0.5","1"
305,NA,"negative","boring",NA,NA,NA,NA,0,5,5,20,NA,NA,NA,NA,"down",0,0.609841108,"2016_Oct_03_1228",60.02762158,"heterogeneity160929b",1,217,6,-0.35,0.609841108,6.41319844454837,305,-0.5,609.841108,"305",-1,"-0.5","-1"
305,NA,"negative","childish",NA,NA,NA,NA,0,6,6,29,NA,NA,NA,NA,"down",0,0.859315157,"2016_Oct_03_1228",60.02762158,"heterogeneity160929b",1,217,7,-0.325,0.859315157,6.75613574293936,305,-0.5,859.315157,"305",-1,"-0.5","-1"
305,NA,"negative","inhibited",NA,NA,NA,NA,0,7,7,25,NA,NA,NA,NA,"down",0,0.858954906,"2016_Oct_03_1228",60.02762158,"heterogeneity160929b",1,217,8,-0.3,0.858954906,6.7557164246808,305,-0.5,858.954906,"305",-1,"-0.5","-1"
305,NA,"positive","disciplined",NA,NA,NA,NA,0,8,8,1,NA,NA,NA,NA,"up",0,0.607793093,"2016_Oct_03_1228",60.02762158,"heterogeneity160929b",1,217,9,-0.275,0.607793093,6.40983451648262,305,0.5,607.793093,"305",1,"0.5","1"
305,NA,"positive","ambitious",NA,NA,NA,NA,0,9,9,10,NA,NA,NA,NA,"up",0,0.625545025,"2016_Oct_03_1228",60.02762158,"heterogeneity160929b",1,217,10,-0.25,0.625545025,6.43862330973043,305,0.5,625.545025,"305",1,"0.5","1"
305,NA,"positive","orderly",NA,NA,NA,NA,0,10,10,14,NA,NA,NA,NA,"up",0,0.642712831,"2016_Oct_03_1228",60.02762158,"heterogeneity160929b",1,217,11,-0.225,0.642712831,6.46569801639143,305,0.5,642.712831,"305",1,"0.5","1"
305,NA,"positive","enthusiastic",NA,NA,NA,NA,0,11,11,16,NA,NA,NA,NA,"up",0,0.52448988,"2016_Oct_03_1228",60.02762158,"heterogeneity160929b",1,217,12,-0.2,0.52448988,6.26242613308396,305,0.5,524.48988,"305",1,"0.5","1"
305,NA,"positive","tender",NA,NA,NA,NA,0,12,12,6,NA,NA,NA,NA,"down",0,0.693358183,"2016_Oct_03_1228",60.02762158,"heterogeneity160929b",1,217,13,-0.175,0.693358183,6.54154672425037,305,0.5,693.358183,"305",1,"0.5","1"
305,NA,"negative","moody",NA,NA,NA,NA,0,13,13,30,NA,NA,NA,NA,"up",0,0.643592834,"2016_Oct_03_1228",60.02762158,"heterogeneity160929b",1,217,14,-0.15,0.643592834,6.46706628081137,305,-0.5,643.592834,"305",-1,"-0.5","-1"
305,NA,"positive","neat",NA,NA,NA,NA,0,14,14,5,NA,NA,NA,NA,"up",0,0.577285051,"2016_Oct_03_1228",60.02762158,"heterogeneity160929b",1,217,15,-0.125,0.577285051,6.35833616704947,305,0.5,577.285051,"305",1,"0.5","1"
305,NA,"negative","insecure",NA,NA,NA,NA,0,15,15,22,NA,NA,NA,NA,"down",0,0.542528868,"2016_Oct_03_1228",60.02762158,"heterogeneity160929b",1,217,16,-0.1,0.542528868,6.29624129690208,305,-0.5,542.528868,"305",-1,"-0.5","-1"
305,NA,"negative","messy",NA,NA,NA,NA,0,16,16,36,NA,NA,NA,NA,"down",0,0.61033082,"2016_Oct_03_1228",60.02762158,"heterogeneity160929b",1,217,17,-0.075,0.61033082,6.4140011380296,305,-0.5,610.33082,"305",-1,"-0.5","-1"
305,NA,"negative","worrying",NA,NA,NA,NA,0,17,17,32,NA,NA,NA,NA,"down",0,0.842612982,"2016_Oct_03_1228",60.02762158,"heterogeneity160929b",1,217,18,-0.05,0.842612982,6.73650775649957,305,-0.5,842.612982,"305",-1,"-0.5","-1"
305,NA,"negative","anxious",NA,NA,NA,NA,0,18,18,35,NA,NA,NA,NA,"down",0,0.676262856,"2016_Oct_03_1228",60.02762158,"heterogeneity160929b",1,217,19,-0.025,0.676262856,6.51658184070088,305,-0.5,676.262856,"305",-1,"-0.5","-1"
305,NA,"negative","withdrawn",NA,NA,NA,NA,0,19,19,38,NA,NA,NA,NA,"down",0,0.6255548,"2016_Oct_03_1228",60.02762158,"heterogeneity160929b",1,217,20,0,0.6255548,6.43863893598151,305,-0.5,625.5548,"305",-1,"-0.5","-1"
305,NA,"negative","clumsy",NA,NA,NA,NA,0,20,20,23,NA,NA,NA,NA,"down",0,0.509428978,"2016_Oct_03_1228",60.02762158,"heterogeneity160929b",1,217,21,0.025,0.509428978,6.23329044746056,305,-0.5,509.428978,"305",-1,"-0.5","-1"
305,NA,"negative","forgetful",NA,NA,NA,NA,0,21,21,31,NA,NA,NA,NA,"up",0,0.659074068,"2016_Oct_03_1228",60.02762158,"heterogeneity160929b",1,217,22,0.05,0.659074068,6.49083592272389,305,-0.5,659.074068,"305",-1,"-0.5","-1"
305,NA,"positive","outgoing",NA,NA,NA,NA,0,22,22,17,NA,NA,NA,NA,"up",0,0.509203196,"2016_Oct_03_1228",60.02762158,"heterogeneity160929b",1,217,23,0.075,0.509203196,6.23284714317573,305,0.5,509.203196,"305",1,"0.5","1"
305,NA,"positive","thrifty",NA,NA,NA,NA,0,23,23,2,NA,NA,NA,NA,"down",0,0.592948198,"2016_Oct_03_1228",60.02762158,"heterogeneity160929b",1,217,24,0.1,0.592948198,6.38510703936411,305,0.5,592.948198,"305",1,"0.5","1"
305,NA,"negative","cynical",NA,NA,NA,NA,0,24,24,37,NA,NA,NA,NA,"down",0,0.709673882,"2016_Oct_03_1228",60.02762158,"heterogeneity160929b",1,217,25,0.125,0.709673882,6.56480554338834,305,-0.5,709.673882,"305",-1,"-0.5","-1"
305,NA,"positive","talented",NA,NA,NA,NA,0,25,25,0,NA,NA,NA,NA,"up",0,0.492809057,"2016_Oct_03_1228",60.02762158,"heterogeneity160929b",1,217,26,0.15,0.492809057,6.20012179070302,305,0.5,492.809057,"305",1,"0.5","1"
305,NA,"positive","brilliant",NA,NA,NA,NA,0,26,26,12,NA,NA,NA,NA,"down",0,0.723426104,"2016_Oct_03_1228",60.02762158,"heterogeneity160929b",1,217,27,0.175,0.723426104,6.58399840402039,305,0.5,723.426104,"305",1,"0.5","1"
305,NA,"negative","impulsive",NA,NA,NA,NA,0,27,27,21,NA,NA,NA,NA,"up",0,0.592279911,"2016_Oct_03_1228",60.02762158,"heterogeneity160929b",1,217,28,0.2,0.592279911,6.38397934577374,305,-0.5,592.279911,"305",-1,"-0.5","-1"
305,NA,"negative","fearful",NA,NA,NA,NA,0,28,28,24,NA,NA,NA,NA,"down",0,0.52620697,"2016_Oct_03_1228",60.02762158,"heterogeneity160929b",1,217,29,0.225,0.52620697,6.26569461443257,305,-0.5,526.20697,"305",-1,"-0.5","-1"
305,NA,"negative","stubborn",NA,NA,NA,NA,0,29,29,39,NA,NA,NA,NA,"up",0,0.709229946,"2016_Oct_03_1228",60.02762158,"heterogeneity160929b",1,217,30,0.25,0.709229946,6.5641797983509,305,-0.5,709.229946,"305",-1,"-0.5","-1"
305,NA,"negative","antisocial",NA,NA,NA,NA,0,30,30,33,NA,NA,NA,NA,"down",0,0.625316858,"2016_Oct_03_1228",60.02762158,"heterogeneity160929b",1,217,31,0.275,0.625316858,6.43825849406911,305,-0.5,625.316858,"305",-1,"-0.5","-1"
305,NA,"positive","idealistic",NA,NA,NA,NA,0,31,31,3,NA,NA,NA,NA,"up",0,0.60859108,"2016_Oct_03_1228",60.02762158,"heterogeneity160929b",1,217,32,0.3,0.60859108,6.41114658076657,305,0.5,608.59108,"305",1,"0.5","1"
305,NA,"positive","artistic",NA,NA,NA,NA,0,32,32,9,NA,NA,NA,NA,"down",0,0.675523996,"2016_Oct_03_1228",60.02762158,"heterogeneity160929b",1,217,33,0.325,0.675523996,6.51548868008538,305,0.5,675.523996,"305",1,"0.5","1"
305,NA,"positive","confident",NA,NA,NA,NA,0,33,33,7,NA,NA,NA,NA,"up",0,0.475741148,"2016_Oct_03_1228",60.02762158,"heterogeneity160929b",1,217,34,0.35,0.475741148,6.16487389959223,305,0.5,475.741148,"305",1,"0.5","1"
305,NA,"positive","wise",NA,NA,NA,NA,0,34,34,19,NA,NA,NA,NA,"up",0,0.577737093,"2016_Oct_03_1228",60.02762158,"heterogeneity160929b",1,217,35,0.375,0.577737093,6.35911890879244,305,0.5,577.737093,"305",1,"0.5","1"
305,NA,"positive","tidy",NA,NA,NA,NA,0,35,35,4,NA,NA,NA,NA,"down",0,0.594467878,"2016_Oct_03_1228",60.02762158,"heterogeneity160929b",1,217,36,0.4,0.594467878,6.38766668271143,305,0.5,594.467878,"305",1,"0.5","1"
305,NA,"negative","timid",NA,NA,NA,NA,0,36,36,28,NA,NA,NA,NA,"down",0,0.776827097,"2016_Oct_03_1228",60.02762158,"heterogeneity160929b",1,217,37,0.425,0.776827097,6.65521779922145,305,-0.5,776.827097,"305",-1,"-0.5","-1"
305,NA,"positive","proud",NA,NA,NA,NA,0,37,37,11,NA,NA,NA,NA,"up",0,0.526437044,"2016_Oct_03_1228",60.02762158,"heterogeneity160929b",1,217,38,0.45,0.526437044,6.26613174987552,305,0.5,526.437044,"305",1,"0.5","1"
305,NA,"positive","persistent",NA,NA,NA,NA,0,38,38,13,NA,NA,NA,NA,"up",0,0.758597136,"2016_Oct_03_1228",60.02762158,"heterogeneity160929b",1,217,39,0.475,0.758597136,6.63147085387198,305,0.5,758.597136,"305",1,"0.5","1"
305,NA,"negative","gullible",NA,NA,NA,NA,0,39,39,34,NA,NA,NA,NA,"down",0,0.658934832,"2016_Oct_03_1228",60.02762158,"heterogeneity160929b",1,217,40,0.5,0.658934832,6.49062464038655,305,-0.5,658.934832,"305",-1,"-0.5","-1"
306,NA,"positive","courageous",NA,NA,NA,NA,0,0,0,15,NA,NA,NA,NA,"up",0,0.925102949,"2016_Oct_03_1240",59.99593762,"heterogeneity160929b",1,218,1,-0.475,0.925102949,6.82990502753568,306,0.5,925.102949,"306",1,"0.5","1"
306,NA,"negative","childish",NA,NA,NA,NA,0,1,1,29,NA,NA,NA,NA,"down",0,0.925594091,"2016_Oct_03_1240",59.99593762,"heterogeneity160929b",1,218,2,-0.45,0.925594091,6.83043579189193,306,-0.5,925.594091,"306",-1,"-0.5","-1"
306,NA,"positive","thrifty",NA,NA,NA,NA,0,2,2,2,NA,NA,NA,NA,"up",0,1.126148939,"2016_Oct_03_1240",59.99593762,"heterogeneity160929b",1,218,3,-0.425,1.126148939,7.02655907259892,306,0.5,1126.148939,"306",1,"0.5","1"
306,NA,"negative","boring",NA,NA,NA,NA,0,3,3,20,NA,NA,NA,NA,"down",0,0.760039091,"2016_Oct_03_1240",59.99593762,"heterogeneity160929b",1,218,4,-0.4,0.760039091,6.63336986748393,306,-0.5,760.039091,"306",-1,"-0.5","-1"
306,NA,"positive","orderly",NA,NA,NA,NA,0,4,4,14,NA,NA,NA,NA,"up",0,1.026129007,"2016_Oct_03_1240",59.99593762,"heterogeneity160929b",1,218,5,-0.375,1.026129007,6.93354875564314,306,0.5,1026.129007,"306",1,"0.5","1"
306,NA,"negative","clumsy",NA,NA,NA,NA,0,5,5,23,NA,NA,NA,NA,"down",0,0.84313798,"2016_Oct_03_1240",59.99593762,"heterogeneity160929b",1,218,6,-0.35,0.84313798,6.737130621951,306,-0.5,843.13798,"306",-1,"-0.5","-1"
306,NA,"positive","idealistic",NA,NA,NA,NA,0,6,6,3,NA,NA,NA,NA,"up",0,0.858340979,"2016_Oct_03_1240",59.99593762,"heterogeneity160929b",1,218,7,-0.325,0.858340979,6.75500143196287,306,0.5,858.340979,"306",1,"0.5","1"
306,NA,"positive","tender",NA,NA,NA,NA,0,7,7,6,NA,NA,NA,NA,"up",0,1.392830133,"2016_Oct_03_1240",59.99593762,"heterogeneity160929b",1,218,8,-0.3,1.392830133,7.23909302305625,306,0.5,1392.830133,"306",1,"0.5","1"
306,NA,"negative","moody",NA,NA,NA,NA,0,8,8,30,NA,NA,NA,NA,"down",0,0.86036706,"2016_Oct_03_1240",59.99593762,"heterogeneity160929b",1,218,9,-0.275,0.86036706,6.75735911214188,306,-0.5,860.36706,"306",-1,"-0.5","-1"
306,NA,"negative","forgetful",NA,NA,NA,NA,0,9,9,31,NA,NA,NA,NA,"down",0,0.892071962,"2016_Oct_03_1240",59.99593762,"heterogeneity160929b",1,218,10,-0.25,0.892071962,6.79354680421386,306,-0.5,892.071962,"306",-1,"-0.5","-1"
306,NA,"negative","cynical",NA,NA,NA,NA,0,10,10,37,NA,NA,NA,NA,"down",0,0.842098951,"2016_Oct_03_1240",59.99593762,"heterogeneity160929b",1,218,11,-0.225,0.842098951,6.73589752633989,306,-0.5,842.098951,"306",-1,"-0.5","-1"
306,NA,"negative","withdrawn",NA,NA,NA,NA,0,11,11,38,NA,NA,NA,NA,"down",0,1.05903697,"2016_Oct_03_1240",59.99593762,"heterogeneity160929b",1,218,12,-0.2,1.05903697,6.96511525528479,306,-0.5,1059.03697,"306",-1,"-0.5","-1"
306,NA,"positive","trusting",NA,NA,NA,NA,0,12,12,8,NA,NA,NA,NA,"up",0,0.776058912,"2016_Oct_03_1240",59.99593762,"heterogeneity160929b",1,218,13,-0.175,0.776058912,6.6542284348274,306,0.5,776.058912,"306",1,"0.5","1"
306,NA,"negative","stubborn",NA,NA,NA,NA,0,13,13,39,NA,NA,NA,NA,"up",0,1.358732939,"2016_Oct_03_1240",59.99593762,"heterogeneity160929b",1,218,14,-0.15,1.358732939,7.21430788196284,306,-0.5,1358.732939,"306",-1,"-0.5","-1"
306,NA,"positive","confident",NA,NA,NA,NA,0,14,14,7,NA,NA,NA,NA,"up",0,0.875502825,"2016_Oct_03_1240",59.99593762,"heterogeneity160929b",1,218,15,-0.125,0.875502825,6.77479837844828,306,0.5,875.502825,"306",1,"0.5","1"
306,NA,"positive","brilliant",NA,NA,NA,NA,0,15,15,12,NA,NA,NA,NA,"up",0,1.425448895,"2016_Oct_03_1240",59.99593762,"heterogeneity160929b",1,218,16,-0.1,1.425448895,7.26224205713133,306,0.5,1425.448895,"306",1,"0.5","1"
306,NA,"negative","insecure",NA,NA,NA,NA,0,16,16,22,NA,NA,NA,NA,"down",0,0.826041937,"2016_Oct_03_1240",59.99593762,"heterogeneity160929b",1,218,17,-0.075,0.826041937,6.71664554341861,306,-0.5,826.041937,"306",-1,"-0.5","-1"
306,NA,"negative","timid",NA,NA,NA,NA,0,17,17,28,NA,NA,NA,NA,"down",0,0.793518066,"2016_Oct_03_1240",59.99593762,"heterogeneity160929b",1,218,18,-0.05,0.793518066,6.67647630719311,306,-0.5,793.518066,"306",-1,"-0.5","-1"
306,NA,"positive","outgoing",NA,NA,NA,NA,0,18,18,17,NA,NA,NA,NA,"up",0,0.859223127,"2016_Oct_03_1240",59.99593762,"heterogeneity160929b",1,218,19,-0.025,0.859223127,6.75602864029179,306,0.5,859.223127,"306",1,"0.5","1"
306,NA,"negative","antisocial",NA,NA,NA,NA,0,19,19,33,NA,NA,NA,NA,"down",0,0.758180857,"2016_Oct_03_1240",59.99593762,"heterogeneity160929b",1,218,20,0,0.758180857,6.63092195480781,306,-0.5,758.180857,"306",-1,"-0.5","-1"
306,NA,"positive","disciplined",NA,NA,NA,NA,0,20,20,1,NA,NA,NA,NA,"up",0,0.791656017,"2016_Oct_03_1240",59.99593762,"heterogeneity160929b",1,218,21,0.025,0.791656017,6.67412697549962,306,0.5,791.656017,"306",1,"0.5","1"
306,NA,"negative","inhibited",NA,NA,NA,NA,0,21,21,25,NA,NA,NA,NA,"down",0,1.025365114,"2016_Oct_03_1240",59.99593762,"heterogeneity160929b",1,218,22,0.05,1.025365114,6.93280403692571,306,-0.5,1025.365114,"306",-1,"-0.5","-1"
306,NA,"negative","worrying",NA,NA,NA,NA,0,22,22,32,NA,NA,NA,NA,"down",0,0.859361887,"2016_Oct_03_1240",59.99593762,"heterogeneity160929b",1,218,23,0.075,0.859361887,6.75619012197488,306,-0.5,859.361887,"306",-1,"-0.5","-1"
306,NA,"positive","proud",NA,NA,NA,NA,0,23,23,11,NA,NA,NA,NA,"up",0,0.860286951,"2016_Oct_03_1240",59.99593762,"heterogeneity160929b",1,218,24,0.1,0.860286951,6.7572659975476,306,0.5,860.286951,"306",1,"0.5","1"
306,NA,"positive","inventive",NA,NA,NA,NA,0,24,24,18,NA,NA,NA,NA,"up",0,0.975487947,"2016_Oct_03_1240",59.99593762,"heterogeneity160929b",1,218,25,0.125,0.975487947,6.88293780427182,306,0.5,975.487947,"306",1,"0.5","1"
306,NA,"negative","anxious",NA,NA,NA,NA,0,25,25,35,NA,NA,NA,NA,"down",0,1.007307053,"2016_Oct_03_1240",59.99593762,"heterogeneity160929b",1,218,26,0.15,1.007307053,6.91503576481035,306,-0.5,1007.307053,"306",-1,"-0.5","-1"
306,NA,"positive","neat",NA,NA,NA,NA,0,26,26,5,NA,NA,NA,NA,"up",0,0.911255836,"2016_Oct_03_1240",59.99593762,"heterogeneity160929b",1,218,27,0.175,0.911255836,6.81482368769194,306,0.5,911.255836,"306",1,"0.5","1"
306,NA,"negative","fearful",NA,NA,NA,NA,0,27,27,24,NA,NA,NA,NA,"down",0,0.84285903,"2016_Oct_03_1240",59.99593762,"heterogeneity160929b",1,218,28,0.2,0.84285903,6.73679971981904,306,-0.5,842.85903,"306",-1,"-0.5","-1"
306,NA,"negative","impulsive",NA,NA,NA,NA,0,28,28,21,NA,NA,NA,NA,"down",0,1.092355013,"2016_Oct_03_1240",59.99593762,"heterogeneity160929b",1,218,29,0.225,1.092355013,6.99609120695002,306,-0.5,1092.355013,"306",-1,"-0.5","-1"
306,NA,"positive","artistic",NA,NA,NA,NA,0,29,29,9,NA,NA,NA,NA,"up",0,0.892500877,"2016_Oct_03_1240",59.99593762,"heterogeneity160929b",1,218,30,0.25,0.892500877,6.79402749628636,306,0.5,892.500877,"306",1,"0.5","1"
306,NA,"negative","gullible",NA,NA,NA,NA,0,30,30,34,NA,NA,NA,NA,"down",0,0.975978136,"2016_Oct_03_1240",59.99593762,"heterogeneity160929b",1,218,31,0.275,0.975978136,6.88344018452283,306,-0.5,975.978136,"306",-1,"-0.5","-1"
306,NA,"positive","ambitious",NA,NA,NA,NA,0,31,31,10,NA,NA,NA,NA,"up",0,0.858906031,"2016_Oct_03_1240",59.99593762,"heterogeneity160929b",1,218,32,0.3,0.858906031,6.75565952251956,306,0.5,858.906031,"306",1,"0.5","1"
306,NA,"positive","enthusiastic",NA,NA,NA,NA,0,32,32,16,NA,NA,NA,NA,"up",0,0.740658045,"2016_Oct_03_1240",59.99593762,"heterogeneity160929b",1,218,33,0.325,0.740658045,6.60753904104967,306,0.5,740.658045,"306",1,"0.5","1"
306,NA,"positive","persistent",NA,NA,NA,NA,0,33,33,13,NA,NA,NA,NA,"up",0,0.775451899,"2016_Oct_03_1240",59.99593762,"heterogeneity160929b",1,218,34,0.35,0.775451899,6.6534459549031,306,0.5,775.451899,"306",1,"0.5","1"
306,NA,"positive","talented",NA,NA,NA,NA,0,34,34,0,NA,NA,NA,NA,"up",0,0.792526007,"2016_Oct_03_1240",59.99593762,"heterogeneity160929b",1,218,35,0.375,0.792526007,6.67522532161677,306,0.5,792.526007,"306",1,"0.5","1"
306,NA,"negative","tense",NA,NA,NA,NA,0,35,35,26,NA,NA,NA,NA,"down",0,0.710165024,"2016_Oct_03_1240",59.99593762,"heterogeneity160929b",1,218,36,0.4,0.710165024,6.56549737119713,306,-0.5,710.165024,"306",-1,"-0.5","-1"
306,NA,"negative","messy",NA,NA,NA,NA,0,36,36,36,NA,NA,NA,NA,"down",0,0.826947212,"2016_Oct_03_1240",59.99593762,"heterogeneity160929b",1,218,37,0.425,0.826947212,6.717740862273,306,-0.5,826.947212,"306",-1,"-0.5","-1"
306,NA,"positive","tidy",NA,NA,NA,NA,0,37,37,4,NA,NA,NA,NA,"up",0,0.74454999,"2016_Oct_03_1240",59.99593762,"heterogeneity160929b",1,218,38,0.45,0.74454999,6.61277999560528,306,0.5,744.54999,"306",1,"0.5","1"
306,NA,"positive","wise",NA,NA,NA,NA,0,38,38,19,NA,NA,NA,NA,"up",0,1.026695013,"2016_Oct_03_1240",59.99593762,"heterogeneity160929b",1,218,39,0.475,1.026695013,6.93410019698329,306,0.5,1026.695013,"306",1,"0.5","1"
306,NA,"negative","irritable",NA,NA,NA,NA,0,39,39,27,NA,NA,NA,NA,"down",0,0.85869503,"2016_Oct_03_1240",59.99593762,"heterogeneity160929b",1,218,40,0.5,0.85869503,6.75541382984289,306,-0.5,858.69503,"306",-1,"-0.5","-1"
219,NA,"negative","antisocial",NA,NA,NA,NA,0,0,0,33,NA,NA,NA,NA,"down",0,1.308437824,"2016_Oct_04_1617",60.03303438,"heterogeneity160929b",1,219,1,-0.475,1.308437824,7.17658920383703,219,-0.5,1308.437824,"219",-1,"-0.5","-1"
219,NA,"negative","clumsy",NA,NA,NA,NA,0,1,1,23,NA,NA,NA,NA,"up",0,0.926563025,"2016_Oct_04_1617",60.03303438,"heterogeneity160929b",1,219,2,-0.45,0.926563025,6.83148206823644,219,-0.5,926.563025,"219",-1,"-0.5","-1"
219,NA,"negative","worrying",NA,NA,NA,NA,0,2,2,32,NA,NA,NA,NA,"up",0,1.108721018,"2016_Oct_04_1617",60.03303438,"heterogeneity160929b",1,219,3,-0.425,1.108721018,7.01096239393604,219,-0.5,1108.721018,"219",-1,"-0.5","-1"
219,NA,"negative","inhibited",NA,NA,NA,NA,0,3,3,25,NA,NA,NA,NA,"down",0,1.292112112,"2016_Oct_04_1617",60.03303438,"heterogeneity160929b",1,219,4,-0.4,1.292112112,7.16403345457171,219,-0.5,1292.112112,"219",-1,"-0.5","-1"
219,NA,"positive","brilliant",NA,NA,NA,NA,0,4,4,12,NA,NA,NA,NA,"up",0,0.942203045,"2016_Oct_04_1617",60.03303438,"heterogeneity160929b",1,219,5,-0.375,0.942203045,6.84822079805864,219,0.5,942.203045,"219",1,"0.5","1"
219,NA,"positive","idealistic",NA,NA,NA,NA,0,5,5,3,NA,NA,NA,NA,"down",0,1.108443975,"2016_Oct_04_1617",60.03303438,"heterogeneity160929b",1,219,6,-0.35,1.108443975,7.01071248650712,219,0.5,1108.443975,"219",1,"0.5","1"
219,NA,"positive","artistic",NA,NA,NA,NA,0,6,6,9,NA,NA,NA,NA,"down",0,0.792494059,"2016_Oct_04_1617",60.03303438,"heterogeneity160929b",1,219,7,-0.325,0.792494059,6.67518500919337,219,0.5,792.494059,"219",1,"0.5","1"
219,NA,"negative","boring",NA,NA,NA,NA,0,7,7,20,NA,NA,NA,NA,"down",0,1.093170881,"2016_Oct_04_1617",60.03303438,"heterogeneity160929b",1,219,8,-0.3,1.093170881,6.9968378172191,219,-0.5,1093.170881,"219",-1,"-0.5","-1"
219,NA,"negative","messy",NA,NA,NA,NA,0,8,8,36,NA,NA,NA,NA,"down",0,0.926575899,"2016_Oct_04_1617",60.03303438,"heterogeneity160929b",1,219,9,-0.275,0.926575899,6.83149596249966,219,-0.5,926.575899,"219",-1,"-0.5","-1"
219,NA,"negative","irritable",NA,NA,NA,NA,0,9,9,27,NA,NA,NA,NA,"up",0,0.924857855,"2016_Oct_04_1617",60.03303438,"heterogeneity160929b",1,219,10,-0.25,0.924857855,6.82964005543367,219,-0.5,924.857855,"219",-1,"-0.5","-1"
219,NA,"positive","orderly",NA,NA,NA,NA,0,10,10,14,NA,NA,NA,NA,"up",0,0.742896795,"2016_Oct_04_1617",60.03303438,"heterogeneity160929b",1,219,11,-0.225,0.742896795,6.61055713197427,219,0.5,742.896795,"219",1,"0.5","1"
219,NA,"negative","cynical",NA,NA,NA,NA,0,11,11,37,NA,NA,NA,NA,"up",0,0.826296091,"2016_Oct_04_1617",60.03303438,"heterogeneity160929b",1,219,12,-0.2,0.826296091,6.71695317296861,219,-0.5,826.296091,"219",-1,"-0.5","-1"
219,NA,"positive","neat",NA,NA,NA,NA,0,12,12,5,NA,NA,NA,NA,"up",0,0.69451499,"2016_Oct_04_1617",60.03303438,"heterogeneity160929b",1,219,13,-0.175,0.69451499,6.54321374583476,219,0.5,694.51499,"219",1,"0.5","1"
219,NA,"positive","disciplined",NA,NA,NA,NA,0,13,13,1,NA,NA,NA,NA,"up",0,1.641513824,"2016_Oct_04_1617",60.03303438,"heterogeneity160929b",1,219,14,-0.15,1.641513824,7.40337415847183,219,0.5,1641.513824,"219",1,"0.5","1"
219,NA,"negative","stubborn",NA,NA,NA,NA,0,14,14,39,NA,NA,NA,NA,"up",0,0.792322159,"2016_Oct_04_1617",60.03303438,"heterogeneity160929b",1,219,15,-0.125,0.792322159,6.67496807552154,219,-0.5,792.322159,"219",-1,"-0.5","-1"
219,NA,"positive","wise",NA,NA,NA,NA,0,15,15,19,NA,NA,NA,NA,"down",0,0.960911989,"2016_Oct_04_1617",60.03303438,"heterogeneity160929b",1,219,16,-0.1,0.960911989,6.86788282205001,219,0.5,960.911989,"219",1,"0.5","1"
219,NA,"negative","anxious",NA,NA,NA,NA,0,16,16,35,NA,NA,NA,NA,"up",0,0.726224184,"2016_Oct_04_1617",60.03303438,"heterogeneity160929b",1,219,17,-0.075,0.726224184,6.58785876054636,219,-0.5,726.224184,"219",-1,"-0.5","-1"
219,NA,"positive","tidy",NA,NA,NA,NA,0,17,17,4,NA,NA,NA,NA,"up",0,0.744406939,"2016_Oct_04_1617",60.03303438,"heterogeneity160929b",1,219,18,-0.05,0.744406939,6.61258784632594,219,0.5,744.406939,"219",1,"0.5","1"
219,NA,"negative","gullible",NA,NA,NA,NA,0,18,18,34,NA,NA,NA,NA,"down",0,0.89198184,"2016_Oct_04_1617",60.03303438,"heterogeneity160929b",1,219,19,-0.025,0.89198184,6.79344577362837,219,-0.5,891.98184,"219",-1,"-0.5","-1"
219,NA,"positive","persistent",NA,NA,NA,NA,0,19,19,13,NA,NA,NA,NA,"up",0,0.741935015,"2016_Oct_04_1617",60.03303438,"heterogeneity160929b",1,219,20,0,0.741935015,6.60926165846942,219,0.5,741.935015,"219",1,"0.5","1"
219,NA,"positive","courageous",NA,NA,NA,NA,0,20,20,15,NA,NA,NA,NA,"down",0,1.041378021,"2016_Oct_04_1617",60.03303438,"heterogeneity160929b",1,219,21,0.025,1.041378021,6.94830013526314,219,0.5,1041.378021,"219",1,"0.5","1"
219,NA,"positive","tender",NA,NA,NA,NA,0,21,21,6,NA,NA,NA,NA,"down",0,1.359728098,"2016_Oct_04_1617",60.03303438,"heterogeneity160929b",1,219,22,0.05,1.359728098,7.21504003080067,219,0.5,1359.728098,"219",1,"0.5","1"
219,NA,"negative","withdrawn",NA,NA,NA,NA,0,22,22,38,NA,NA,NA,NA,"down",0,1.425330162,"2016_Oct_04_1617",60.03303438,"heterogeneity160929b",1,219,23,0.075,1.425330162,7.26215875849774,219,-0.5,1425.330162,"219",-1,"-0.5","-1"
219,NA,"negative","timid",NA,NA,NA,NA,0,23,23,28,NA,NA,NA,NA,"down",0,1.510212898,"2016_Oct_04_1617",60.03303438,"heterogeneity160929b",1,219,24,0.1,1.510212898,7.3200059119235,219,-0.5,1510.212898,"219",-1,"-0.5","-1"
219,NA,"negative","childish",NA,NA,NA,NA,0,24,24,29,NA,NA,NA,NA,"down",0,0.959307194,"2016_Oct_04_1617",60.03303438,"heterogeneity160929b",1,219,25,0.125,0.959307194,6.86621135101396,219,-0.5,959.307194,"219",-1,"-0.5","-1"
219,NA,"positive","inventive",NA,NA,NA,NA,0,25,25,18,NA,NA,NA,NA,"up",0,2.125329018,"2016_Oct_04_1617",60.03303438,"heterogeneity160929b",1,219,26,0.15,2.125329018,7.66168190137328,219,0.5,2125.329018,"219",1,"0.5","1"
219,NA,"positive","talented",NA,NA,NA,NA,0,26,26,0,NA,NA,NA,NA,"up",0,1.273655891,"2016_Oct_04_1617",60.03303438,"heterogeneity160929b",1,219,27,0.175,1.273655891,7.14964669839231,219,0.5,1273.655891,"219",1,"0.5","1"
219,NA,"positive","proud",NA,NA,NA,NA,0,27,27,11,NA,NA,NA,NA,"up",0,0.843729019,"2016_Oct_04_1617",60.03303438,"heterogeneity160929b",1,219,28,0.2,0.843729019,6.7378313755072,219,0.5,843.729019,"219",1,"0.5","1"
219,NA,"positive","confident",NA,NA,NA,NA,0,28,28,7,NA,NA,NA,NA,"up",0,0.8423388,"2016_Oct_04_1617",60.03303438,"heterogeneity160929b",1,219,29,0.225,0.8423388,6.73618230860801,219,0.5,842.3388,"219",1,"0.5","1"
219,NA,"negative","forgetful",NA,NA,NA,NA,0,29,29,31,NA,NA,NA,NA,"down",0,0.908948898,"2016_Oct_04_1617",60.03303438,"heterogeneity160929b",1,219,30,0.25,0.908948898,6.81228887477542,219,-0.5,908.948898,"219",-1,"-0.5","-1"
219,NA,"positive","enthusiastic",NA,NA,NA,NA,0,30,30,16,NA,NA,NA,NA,"up",0,0.857723951,"2016_Oct_04_1617",60.03303438,"heterogeneity160929b",1,219,31,0.275,0.857723951,6.75428231228878,219,0.5,857.723951,"219",1,"0.5","1"
219,NA,"positive","ambitious",NA,NA,NA,NA,0,31,31,10,NA,NA,NA,NA,"up",0,0.692232847,"2016_Oct_04_1617",60.03303438,"heterogeneity160929b",1,219,32,0.3,0.692232847,6.53992238312364,219,0.5,692.232847,"219",1,"0.5","1"
219,NA,"positive","trusting",NA,NA,NA,NA,0,32,32,8,NA,NA,NA,NA,"up",0,0.82554698,"2016_Oct_04_1617",60.03303438,"heterogeneity160929b",1,219,33,0.325,0.82554698,6.71604617270387,219,0.5,825.54698,"219",1,"0.5","1"
219,NA,"positive","thrifty",NA,NA,NA,NA,0,33,33,2,NA,NA,NA,NA,"down",0,0.892872095,"2016_Oct_04_1617",60.03303438,"heterogeneity160929b",1,219,34,0.35,0.892872095,6.79444333993491,219,0.5,892.872095,"219",1,"0.5","1"
219,NA,"negative","moody",NA,NA,NA,NA,0,34,34,30,NA,NA,NA,NA,"up",0,0.760176182,"2016_Oct_04_1617",60.03303438,"heterogeneity160929b",1,219,35,0.375,0.760176182,6.63355022483569,219,-0.5,760.176182,"219",-1,"-0.5","-1"
219,NA,"negative","impulsive",NA,NA,NA,NA,0,35,35,21,NA,NA,NA,NA,"up",0,0.775439024,"2016_Oct_04_1617",60.03303438,"heterogeneity160929b",1,219,36,0.4,0.775439024,6.6534293515433,219,-0.5,775.439024,"219",-1,"-0.5","-1"
219,NA,"positive","outgoing",NA,NA,NA,NA,0,36,36,17,NA,NA,NA,NA,"up",0,0.825372934,"2016_Oct_04_1617",60.03303438,"heterogeneity160929b",1,219,37,0.425,0.825372934,6.71583532540695,219,0.5,825.372934,"219",1,"0.5","1"
219,NA,"negative","insecure",NA,NA,NA,NA,0,37,37,22,NA,NA,NA,NA,"down",0,1.342342138,"2016_Oct_04_1617",60.03303438,"heterogeneity160929b",1,219,38,0.45,1.342342138,7.20217123138706,219,-0.5,1342.342138,"219",-1,"-0.5","-1"
219,NA,"negative","tense",NA,NA,NA,NA,0,38,38,26,NA,NA,NA,NA,"up",0,0.727036953,"2016_Oct_04_1617",60.03303438,"heterogeneity160929b",1,219,39,0.475,0.727036953,6.58897730567779,219,-0.5,727.036953,"219",-1,"-0.5","-1"
219,NA,"negative","fearful",NA,NA,NA,NA,0,39,39,24,NA,NA,NA,NA,"down",0,1.442433119,"2016_Oct_04_1617",60.03303438,"heterogeneity160929b",1,219,40,0.5,1.442433119,7.27408663266267,219,-0.5,1442.433119,"219",-1,"-0.5","-1"
220,NA,"positive","proud",NA,NA,NA,NA,0,0,0,11,NA,NA,NA,NA,"up",0,0.593844891,"2016_Oct_04_1654",59.99773988,"heterogeneity160929b",1,220,1,-0.475,0.593844891,6.38661815900062,220,0.5,593.844891,"220",1,"0.5","1"
220,NA,"positive","thrifty",NA,NA,NA,NA,0,1,1,2,NA,NA,NA,NA,"up",0,0.742787838,"2016_Oct_04_1654",59.99773988,"heterogeneity160929b",1,220,2,-0.45,0.742787838,6.61041045616196,220,0.5,742.787838,"220",1,"0.5","1"
220,NA,"negative","antisocial",NA,NA,NA,NA,0,2,2,33,NA,NA,NA,NA,"down",0,0.741426945,"2016_Oct_04_1654",59.99773988,"heterogeneity160929b",1,220,3,-0.425,0.741426945,6.6085766334606,220,-0.5,741.426945,"220",-1,"-0.5","-1"
220,NA,"positive","courageous",NA,NA,NA,NA,0,3,3,15,NA,NA,NA,NA,"up",0,0.908491135,"2016_Oct_04_1654",59.99773988,"heterogeneity160929b",1,220,4,-0.4,0.908491135,6.81178512994602,220,0.5,908.491135,"220",1,"0.5","1"
220,NA,"negative","inhibited",NA,NA,NA,NA,0,4,4,25,NA,NA,NA,NA,"down",0,1.375585079,"2016_Oct_04_1654",59.99773988,"heterogeneity160929b",1,220,5,-0.375,1.375585079,7.22663443159611,220,-0.5,1375.585079,"220",-1,"-0.5","-1"
220,NA,"negative","tense",NA,NA,NA,NA,0,5,5,26,NA,NA,NA,NA,"up",0,0.97617197,"2016_Oct_04_1654",59.99773988,"heterogeneity160929b",1,220,6,-0.35,0.97617197,6.8836387696624,220,-0.5,976.17197,"220",-1,"-0.5","-1"
220,NA,"positive","enthusiastic",NA,NA,NA,NA,0,6,6,16,NA,NA,NA,NA,"up",0,0.641052961,"2016_Oct_04_1654",59.99773988,"heterogeneity160929b",1,220,7,-0.325,0.641052961,6.46311207597252,220,0.5,641.052961,"220",1,"0.5","1"
220,NA,"negative","irritable",NA,NA,NA,NA,0,7,7,27,NA,NA,NA,NA,"up",0,0.95882988,"2016_Oct_04_1654",59.99773988,"heterogeneity160929b",1,220,8,-0.3,0.95882988,6.86571366602959,220,-0.5,958.82988,"220",-1,"-0.5","-1"
220,NA,"negative","clumsy",NA,NA,NA,NA,0,8,8,23,NA,NA,NA,NA,"down",0,0.893037796,"2016_Oct_04_1654",59.99773988,"heterogeneity160929b",1,220,9,-0.275,0.893037796,6.79462890472887,220,-0.5,893.037796,"220",-1,"-0.5","-1"
220,NA,"negative","impulsive",NA,NA,NA,NA,0,9,9,21,NA,NA,NA,NA,"down",0,1.242115021,"2016_Oct_04_1654",59.99773988,"heterogeneity160929b",1,220,10,-0.25,1.242115021,7.12457086770623,220,-0.5,1242.115021,"220",-1,"-0.5","-1"
220,NA,"positive","tender",NA,NA,NA,NA,0,10,10,6,NA,NA,NA,NA,"up",0,0.759845018,"2016_Oct_04_1654",59.99773988,"heterogeneity160929b",1,220,11,-0.225,0.759845018,6.6331144888009,220,0.5,759.845018,"220",1,"0.5","1"
220,NA,"positive","orderly",NA,NA,NA,NA,0,11,11,14,NA,NA,NA,NA,"up",0,0.72636199,"2016_Oct_04_1654",59.99773988,"heterogeneity160929b",1,220,12,-0.2,0.72636199,6.58804849937615,220,0.5,726.36199,"220",1,"0.5","1"
220,NA,"positive","idealistic",NA,NA,NA,NA,0,12,12,3,NA,NA,NA,NA,"up",0,0.692070007,"2016_Oct_04_1654",59.99773988,"heterogeneity160929b",1,220,13,-0.175,0.692070007,6.53968711668569,220,0.5,692.070007,"220",1,"0.5","1"
220,NA,"positive","wise",NA,NA,NA,NA,0,13,13,19,NA,NA,NA,NA,"up",0,0.54419589,"2016_Oct_04_1654",59.99773988,"heterogeneity160929b",1,220,14,-0.15,0.54419589,6.29930927395017,220,0.5,544.19589,"220",1,"0.5","1"
220,NA,"positive","disciplined",NA,NA,NA,NA,0,14,14,1,NA,NA,NA,NA,"up",0,0.874332905,"2016_Oct_04_1654",59.99773988,"heterogeneity160929b",1,220,15,-0.125,0.874332905,6.77346120130158,220,0.5,874.332905,"220",1,"0.5","1"
220,NA,"negative","insecure",NA,NA,NA,NA,0,15,15,22,NA,NA,NA,NA,"down",0,1.009105921,"2016_Oct_04_1654",59.99773988,"heterogeneity160929b",1,220,16,-0.1,1.009105921,6.91681999105807,220,-0.5,1009.105921,"220",-1,"-0.5","-1"
220,NA,"positive","trusting",NA,NA,NA,NA,0,16,16,8,NA,NA,NA,NA,"up",0,0.742572069,"2016_Oct_04_1654",59.99773988,"heterogeneity160929b",1,220,17,-0.075,0.742572069,6.61011992859285,220,0.5,742.572069,"220",1,"0.5","1"
220,NA,"positive","artistic",NA,NA,NA,NA,0,17,17,9,NA,NA,NA,NA,"up",0,0.725991964,"2016_Oct_04_1654",59.99773988,"heterogeneity160929b",1,220,18,-0.05,0.725991964,6.58753894589301,220,0.5,725.991964,"220",1,"0.5","1"
220,NA,"negative","boring",NA,NA,NA,NA,0,18,18,20,NA,NA,NA,NA,"down",0,0.909868002,"2016_Oct_04_1654",59.99773988,"heterogeneity160929b",1,220,19,-0.025,0.909868002,6.81329953624248,220,-0.5,909.868002,"220",-1,"-0.5","-1"
220,NA,"negative","moody",NA,NA,NA,NA,0,19,19,30,NA,NA,NA,NA,"up",0,1.310304165,"2016_Oct_04_1654",59.99773988,"heterogeneity160929b",1,220,20,0,1.310304165,7.17801457626686,220,-0.5,1310.304165,"220",-1,"-0.5","-1"
220,NA,"negative","stubborn",NA,NA,NA,NA,0,20,20,39,NA,NA,NA,NA,"down",0,0.958702087,"2016_Oct_04_1654",59.99773988,"heterogeneity160929b",1,220,21,0.025,0.958702087,6.86558037698681,220,-0.5,958.702087,"220",-1,"-0.5","-1"
220,NA,"positive","persistent",NA,NA,NA,NA,0,21,21,13,NA,NA,NA,NA,"up",0,0.758481979,"2016_Oct_04_1654",59.99773988,"heterogeneity160929b",1,220,22,0.05,0.758481979,6.631319039772,220,0.5,758.481979,"220",1,"0.5","1"
220,NA,"negative","fearful",NA,NA,NA,NA,0,22,22,24,NA,NA,NA,NA,"down",0,0.859536886,"2016_Oct_04_1654",59.99773988,"heterogeneity160929b",1,220,23,0.075,0.859536886,6.75639373955069,220,-0.5,859.536886,"220",-1,"-0.5","-1"
220,NA,"positive","ambitious",NA,NA,NA,NA,0,23,23,10,NA,NA,NA,NA,"up",0,1.041632175,"2016_Oct_04_1654",59.99773988,"heterogeneity160929b",1,220,24,0.1,1.041632175,6.94854416095418,220,0.5,1041.632175,"220",1,"0.5","1"
220,NA,"negative","gullible",NA,NA,NA,NA,0,24,24,34,NA,NA,NA,NA,"down",0,0.87591815,"2016_Oct_04_1654",59.99773988,"heterogeneity160929b",1,220,25,0.125,0.87591815,6.77527265049791,220,-0.5,875.91815,"220",-1,"-0.5","-1"
220,NA,"positive","tidy",NA,NA,NA,NA,0,25,25,4,NA,NA,NA,NA,"down",0,1.211111069,"2016_Oct_04_1654",59.99773988,"heterogeneity160929b",1,220,26,0.15,1.211111069,7.09929345611037,220,0.5,1211.111069,"220",1,"0.5","1"
220,NA,"positive","brilliant",NA,NA,NA,NA,0,26,26,12,NA,NA,NA,NA,"up",0,0.840034962,"2016_Oct_04_1654",59.99773988,"heterogeneity160929b",1,220,27,0.175,0.840034962,6.73344351239978,220,0.5,840.034962,"220",1,"0.5","1"
220,NA,"negative","messy",NA,NA,NA,NA,0,27,27,36,NA,NA,NA,NA,"down",0,0.776935101,"2016_Oct_04_1654",59.99773988,"heterogeneity160929b",1,220,28,0.2,0.776935101,6.65535682178271,220,-0.5,776.935101,"220",-1,"-0.5","-1"
220,NA,"negative","timid",NA,NA,NA,NA,0,28,28,28,NA,NA,NA,NA,"down",0,1.260088921,"2016_Oct_04_1654",59.99773988,"heterogeneity160929b",1,220,29,0.225,1.260088921,7.13893756967764,220,-0.5,1260.088921,"220",-1,"-0.5","-1"
220,NA,"positive","neat",NA,NA,NA,NA,0,29,29,5,NA,NA,NA,NA,"up",0,0.744418144,"2016_Oct_04_1654",59.99773988,"heterogeneity160929b",1,220,30,0.25,0.744418144,6.61260289846353,220,0.5,744.418144,"220",1,"0.5","1"
220,NA,"positive","talented",NA,NA,NA,NA,0,30,30,0,NA,NA,NA,NA,"up",0,0.708742142,"2016_Oct_04_1654",59.99773988,"heterogeneity160929b",1,220,31,0.275,0.708742142,6.56349176785528,220,0.5,708.742142,"220",1,"0.5","1"
220,NA,"positive","outgoing",NA,NA,NA,NA,0,31,31,17,NA,NA,NA,NA,"up",0,0.576062918,"2016_Oct_04_1654",59.99773988,"heterogeneity160929b",1,220,32,0.3,0.576062918,6.35621688736933,220,0.5,576.062918,"220",1,"0.5","1"
220,NA,"positive","inventive",NA,NA,NA,NA,0,32,32,18,NA,NA,NA,NA,"up",0,1.14221406,"2016_Oct_04_1654",59.99773988,"heterogeneity160929b",1,220,33,0.325,1.14221406,7.04072381573301,220,0.5,1142.21406,"220",1,"0.5","1"
220,NA,"negative","withdrawn",NA,NA,NA,NA,0,33,33,38,NA,NA,NA,NA,"down",0,0.958406925,"2016_Oct_04_1654",59.99773988,"heterogeneity160929b",1,220,34,0.35,0.958406925,6.86527245291939,220,-0.5,958.406925,"220",-1,"-0.5","-1"
220,NA,"negative","forgetful",NA,NA,NA,NA,0,34,34,31,NA,NA,NA,NA,"down",0,1.12519908,"2016_Oct_04_1654",59.99773988,"heterogeneity160929b",1,220,35,0.375,1.12519908,7.02571525898295,220,-0.5,1125.19908,"220",-1,"-0.5","-1"
220,NA,"negative","childish",NA,NA,NA,NA,0,35,35,29,NA,NA,NA,NA,"down",0,1.242444992,"2016_Oct_04_1654",59.99773988,"heterogeneity160929b",1,220,36,0.4,1.242444992,7.12483648495856,220,-0.5,1242.444992,"220",-1,"-0.5","-1"
220,NA,"positive","confident",NA,NA,NA,NA,0,36,36,7,NA,NA,NA,NA,"up",0,0.759021997,"2016_Oct_04_1654",59.99773988,"heterogeneity160929b",1,220,37,0.425,0.759021997,6.63203075853035,220,0.5,759.021997,"220",1,"0.5","1"
220,NA,"negative","cynical",NA,NA,NA,NA,0,37,37,37,NA,NA,NA,NA,"down",0,0.842943192,"2016_Oct_04_1654",59.99773988,"heterogeneity160929b",1,220,38,0.45,0.842943192,6.73689956783083,220,-0.5,842.943192,"220",-1,"-0.5","-1"
220,NA,"negative","anxious",NA,NA,NA,NA,0,38,38,35,NA,NA,NA,NA,"down",0,0.72636199,"2016_Oct_04_1654",59.99773988,"heterogeneity160929b",1,220,39,0.475,0.72636199,6.58804849937615,220,-0.5,726.36199,"220",-1,"-0.5","-1"
220,NA,"negative","worrying",NA,NA,NA,NA,0,39,39,32,NA,NA,NA,NA,"down",0,0.858913183,"2016_Oct_04_1654",59.99773988,"heterogeneity160929b",1,220,40,0.5,0.858913183,6.75566784935622,220,-0.5,858.913183,"220",-1,"-0.5","-1"
221,NA,"positive","courageous",NA,NA,NA,NA,0,0,0,15,NA,NA,NA,NA,"up",0,1.375041008,"2016_Oct_04_1710",59.9865848,"heterogeneity160929b",1,221,1,-0.475,1.375041008,7.22623883365594,221,0.5,1375.041008,"221",1,"0.5","1"
221,NA,"negative","anxious",NA,NA,NA,NA,0,1,1,35,NA,NA,NA,NA,"up",0,1.125902891,"2016_Oct_04_1710",59.9865848,"heterogeneity160929b",1,221,2,-0.45,1.125902891,7.02634056252939,221,-0.5,1125.902891,"221",-1,"-0.5","-1"
221,NA,"negative","antisocial",NA,NA,NA,NA,0,2,2,33,NA,NA,NA,NA,"up",0,1.591756105,"2016_Oct_04_1710",59.9865848,"heterogeneity160929b",1,221,3,-0.425,1.591756105,7.37259315429107,221,-0.5,1591.756105,"221",-1,"-0.5","-1"
221,NA,"positive","artistic",NA,NA,NA,NA,0,3,3,9,NA,NA,NA,NA,"up",0,1.14253211,"2016_Oct_04_1710",59.9865848,"heterogeneity160929b",1,221,4,-0.4,1.14253211,7.04100222740624,221,0.5,1142.53211,"221",1,"0.5","1"
221,NA,"negative","worrying",NA,NA,NA,NA,0,4,4,32,NA,NA,NA,NA,"up",0,1.142591,"2016_Oct_04_1710",59.9865848,"heterogeneity160929b",1,221,5,-0.375,1.142591,7.04105376948707,221,-0.5,1142.591,"221",-1,"-0.5","-1"
221,NA,"positive","confident",NA,NA,NA,NA,0,5,5,7,NA,NA,NA,NA,"down",0,1.24229002,"2016_Oct_04_1710",59.9865848,"heterogeneity160929b",1,221,6,-0.35,1.24229002,7.12471174570109,221,0.5,1242.29002,"221",1,"0.5","1"
221,NA,"negative","tense",NA,NA,NA,NA,0,6,6,26,NA,NA,NA,NA,"up",0,1.326884985,"2016_Oct_04_1710",59.9865848,"heterogeneity160929b",1,221,7,-0.325,1.326884985,7.19058935762939,221,-0.5,1326.884985,"221",-1,"-0.5","-1"
221,NA,"positive","disciplined",NA,NA,NA,NA,0,7,7,1,NA,NA,NA,NA,"up",0,0.97460413,"2016_Oct_04_1710",59.9865848,"heterogeneity160929b",1,221,8,-0.3,0.97460413,6.88203136803638,221,0.5,974.60413,"221",1,"0.5","1"
221,NA,"positive","enthusiastic",NA,NA,NA,NA,0,8,8,16,NA,NA,NA,NA,"down",0,1.473688841,"2016_Oct_04_1710",59.9865848,"heterogeneity160929b",1,221,9,-0.275,1.473688841,7.29552395209311,221,0.5,1473.688841,"221",1,"0.5","1"
221,NA,"negative","timid",NA,NA,NA,NA,0,9,9,28,NA,NA,NA,NA,"down",0,1.093511105,"2016_Oct_04_1710",59.9865848,"heterogeneity160929b",1,221,10,-0.25,1.093511105,6.99714899552936,221,-0.5,1093.511105,"221",-1,"-0.5","-1"
221,NA,"negative","insecure",NA,NA,NA,NA,0,10,10,22,NA,NA,NA,NA,"up",0,1.809293985,"2016_Oct_04_1710",59.9865848,"heterogeneity160929b",1,221,11,-0.225,1.809293985,7.50069198462939,221,-0.5,1809.293985,"221",-1,"-0.5","-1"
221,NA,"negative","messy",NA,NA,NA,NA,0,11,11,36,NA,NA,NA,NA,"down",0,1.160146952,"2016_Oct_04_1710",59.9865848,"heterogeneity160929b",1,221,12,-0.2,1.160146952,7.05630195883545,221,-0.5,1160.146952,"221",-1,"-0.5","-1"
221,NA,"positive","persistent",NA,NA,NA,NA,0,12,12,13,NA,NA,NA,NA,"up",0,1.025079012,"2016_Oct_04_1710",59.9865848,"heterogeneity160929b",1,221,13,-0.175,1.025079012,6.93252497347967,221,0.5,1025.079012,"221",1,"0.5","1"
221,NA,"negative","inhibited",NA,NA,NA,NA,0,13,13,25,NA,NA,NA,NA,"up",0,2.158321142,"2016_Oct_04_1710",59.9865848,"heterogeneity160929b",1,221,14,-0.15,2.158321142,7.67708594938947,221,-0.5,2158.321142,"221",-1,"-0.5","-1"
221,NA,"negative","irritable",NA,NA,NA,NA,0,14,14,27,NA,NA,NA,NA,"down",0,1.392225027,"2016_Oct_04_1710",59.9865848,"heterogeneity160929b",1,221,15,-0.125,1.392225027,7.23865848515681,221,-0.5,1392.225027,"221",-1,"-0.5","-1"
221,NA,"positive","outgoing",NA,NA,NA,NA,0,15,15,17,NA,NA,NA,NA,"down",0,1.12577486,"2016_Oct_04_1710",59.9865848,"heterogeneity160929b",1,221,16,-0.1,1.12577486,7.02622684199359,221,0.5,1125.77486,"221",1,"0.5","1"
221,NA,"negative","fearful",NA,NA,NA,NA,0,16,16,24,NA,NA,NA,NA,"up",0,1.159566879,"2016_Oct_04_1710",59.9865848,"heterogeneity160929b",1,221,17,-0.075,1.159566879,7.05580183420426,221,-0.5,1159.566879,"221",-1,"-0.5","-1"
221,NA,"negative","cynical",NA,NA,NA,NA,0,17,17,37,NA,NA,NA,NA,"up",0,1.409457922,"2016_Oct_04_1710",59.9865848,"heterogeneity160929b",1,221,18,-0.05,1.409457922,7.25096045696914,221,-0.5,1409.457922,"221",-1,"-0.5","-1"
221,NA,"negative","moody",NA,NA,NA,NA,0,18,18,30,NA,NA,NA,NA,"down",0,1.493393898,"2016_Oct_04_1710",59.9865848,"heterogeneity160929b",1,221,19,-0.025,1.493393898,7.30880659261495,221,-0.5,1493.393898,"221",-1,"-0.5","-1"
221,NA,"negative","boring",NA,NA,NA,NA,0,19,19,20,NA,NA,NA,NA,"up",0,1.442912102,"2016_Oct_04_1710",59.9865848,"heterogeneity160929b",1,221,20,0,1.442912102,7.27441864354366,221,-0.5,1442.912102,"221",-1,"-0.5","-1"
221,NA,"negative","childish",NA,NA,NA,NA,0,20,20,29,NA,NA,NA,NA,"down",0,1.39240098,"2016_Oct_04_1710",59.9865848,"heterogeneity160929b",1,221,21,0.025,1.39240098,7.23878485975778,221,-0.5,1392.40098,"221",-1,"-0.5","-1"
221,NA,"positive","inventive",NA,NA,NA,NA,0,21,21,18,NA,NA,NA,NA,"down",0,1.258929014,"2016_Oct_04_1710",59.9865848,"heterogeneity160929b",1,221,22,0.05,1.258929014,7.13801664961125,221,0.5,1258.929014,"221",1,"0.5","1"
221,NA,"positive","thrifty",NA,NA,NA,NA,0,22,22,2,NA,NA,NA,NA,"down",0,1.442677021,"2016_Oct_04_1710",59.9865848,"heterogeneity160929b",1,221,23,0.075,1.442677021,7.27425570905057,221,0.5,1442.677021,"221",1,"0.5","1"
221,NA,"positive","tender",NA,NA,NA,NA,0,23,23,6,NA,NA,NA,NA,"up",0,1.926578999,"2016_Oct_04_1710",59.9865848,"heterogeneity160929b",1,221,24,0.1,1.926578999,7.56350116971392,221,0.5,1926.578999,"221",1,"0.5","1"
221,NA,"positive","tidy",NA,NA,NA,NA,0,24,24,4,NA,NA,NA,NA,"up",0,0.910909891,"2016_Oct_04_1710",59.9865848,"heterogeneity160929b",1,221,25,0.125,0.910909891,6.81444398018341,221,0.5,910.909891,"221",1,"0.5","1"
221,NA,"positive","idealistic",NA,NA,NA,NA,0,25,25,3,NA,NA,NA,NA,"up",0,1.422923088,"2016_Oct_04_1710",59.9865848,"heterogeneity160929b",1,221,26,0.15,1.422923088,7.26046854743729,221,0.5,1422.923088,"221",1,"0.5","1"
221,NA,"positive","brilliant",NA,NA,NA,NA,0,26,26,12,NA,NA,NA,NA,"down",0,1.242238998,"2016_Oct_04_1710",59.9865848,"heterogeneity160929b",1,221,27,0.175,1.242238998,7.12467067393285,221,0.5,1242.238998,"221",1,"0.5","1"
221,NA,"negative","withdrawn",NA,NA,NA,NA,0,27,27,38,NA,NA,NA,NA,"up",0,1.658904076,"2016_Oct_04_1710",59.9865848,"heterogeneity160929b",1,221,28,0.2,1.658904076,7.41391246814506,221,-0.5,1658.904076,"221",-1,"-0.5","-1"
221,NA,"positive","neat",NA,NA,NA,NA,0,28,28,5,NA,NA,NA,NA,"up",0,1.011132002,"2016_Oct_04_1710",59.9865848,"heterogeneity160929b",1,221,29,0.225,1.011132002,6.91882577627396,221,0.5,1011.132002,"221",1,"0.5","1"
221,NA,"negative","stubborn",NA,NA,NA,NA,0,29,29,39,NA,NA,NA,NA,"up",0,1.275840998,"2016_Oct_04_1710",59.9865848,"heterogeneity160929b",1,221,30,0.25,1.275840998,7.15136084642243,221,-0.5,1275.840998,"221",-1,"-0.5","-1"
221,NA,"positive","orderly",NA,NA,NA,NA,0,30,30,14,NA,NA,NA,NA,"up",0,0.842937946,"2016_Oct_04_1710",59.9865848,"heterogeneity160929b",1,221,31,0.275,0.842937946,6.73689334437903,221,0.5,842.937946,"221",1,"0.5","1"
221,NA,"positive","ambitious",NA,NA,NA,NA,0,31,31,10,NA,NA,NA,NA,"up",0,0.975550175,"2016_Oct_04_1710",59.9865848,"heterogeneity160929b",1,221,32,0.3,0.975550175,6.88300159390188,221,0.5,975.550175,"221",1,"0.5","1"
221,NA,"positive","talented",NA,NA,NA,NA,0,32,32,0,NA,NA,NA,NA,"down",0,1.642147064,"2016_Oct_04_1710",59.9865848,"heterogeneity160929b",1,221,33,0.325,1.642147064,7.40375984994817,221,0.5,1642.147064,"221",1,"0.5","1"
221,NA,"negative","forgetful",NA,NA,NA,NA,0,33,33,31,NA,NA,NA,NA,"down",0,1.525475025,"2016_Oct_04_1710",59.9865848,"heterogeneity160929b",1,221,34,0.35,1.525475025,7.33006113234129,221,-0.5,1525.475025,"221",-1,"-0.5","-1"
221,NA,"positive","proud",NA,NA,NA,NA,0,34,34,11,NA,NA,NA,NA,"up",0,1.210244179,"2016_Oct_04_1710",59.9865848,"heterogeneity160929b",1,221,35,0.375,1.210244179,7.09857741905819,221,0.5,1210.244179,"221",1,"0.5","1"
221,NA,"positive","trusting",NA,NA,NA,NA,0,35,35,8,NA,NA,NA,NA,"up",0,1.025934935,"2016_Oct_04_1710",59.9865848,"heterogeneity160929b",1,221,36,0.4,1.025934935,6.93335960754049,221,0.5,1025.934935,"221",1,"0.5","1"
221,NA,"negative","gullible",NA,NA,NA,NA,0,36,36,34,NA,NA,NA,NA,"up",0,1.275892973,"2016_Oct_04_1710",59.9865848,"heterogeneity160929b",1,221,37,0.425,1.275892973,7.15140158342762,221,-0.5,1275.892973,"221",-1,"-0.5","-1"
221,NA,"negative","clumsy",NA,NA,NA,NA,0,37,37,23,NA,NA,NA,NA,"up",0,1.44313693,"2016_Oct_04_1710",59.9865848,"heterogeneity160929b",1,221,38,0.45,1.44313693,7.27457444685675,221,-0.5,1443.13693,"221",-1,"-0.5","-1"
221,NA,"negative","impulsive",NA,NA,NA,NA,0,38,38,21,NA,NA,NA,NA,"up",0,1.658541918,"2016_Oct_04_1710",59.9865848,"heterogeneity160929b",1,221,39,0.475,1.658541918,7.41369413271347,221,-0.5,1658.541918,"221",-1,"-0.5","-1"
221,NA,"positive","wise",NA,NA,NA,NA,0,39,39,19,NA,NA,NA,NA,"up",0,0.910953999,"2016_Oct_04_1710",59.9865848,"heterogeneity160929b",1,221,40,0.5,0.910953999,6.81449240092467,221,0.5,910.953999,"221",1,"0.5","1"
222,NA,"negative","withdrawn",NA,NA,NA,NA,0,0,0,38,NA,NA,NA,NA,"down",0,1.025910139,"2016_Oct_04_1730",59.97397598,"heterogeneity160929b",1,222,1,-0.475,1.025910139,6.93333543807437,222,-0.5,1025.910139,"222",-1,"-0.5","-1"
222,NA,"positive","confident",NA,NA,NA,NA,0,1,1,7,NA,NA,NA,NA,"up",0,0.792237043,"2016_Oct_04_1730",59.97397598,"heterogeneity160929b",1,222,2,-0.45,0.792237043,6.67486064375127,222,0.5,792.237043,"222",1,"0.5","1"
222,NA,"positive","trusting",NA,NA,NA,NA,0,2,2,8,NA,NA,NA,NA,"up",0,0.858887196,"2016_Oct_04_1730",59.97397598,"heterogeneity160929b",1,222,3,-0.425,0.858887196,6.75563759322131,222,0.5,858.887196,"222",1,"0.5","1"
222,NA,"negative","gullible",NA,NA,NA,NA,0,3,3,34,NA,NA,NA,NA,"down",0,1.209042072,"2016_Oct_04_1730",59.97397598,"heterogeneity160929b",1,222,4,-0.4,1.209042072,7.09758364901676,222,-0.5,1209.042072,"222",-1,"-0.5","-1"
222,NA,"positive","inventive",NA,NA,NA,NA,0,4,4,18,NA,NA,NA,NA,"up",0,1.17550993,"2016_Oct_04_1730",59.97397598,"heterogeneity160929b",1,222,5,-0.375,1.17550993,7.06945731541361,222,0.5,1175.50993,"222",1,"0.5","1"
222,NA,"positive","tender",NA,NA,NA,NA,0,5,5,6,NA,NA,NA,NA,"down",0,1.243238926,"2016_Oct_04_1730",59.97397598,"heterogeneity160929b",1,222,6,-0.35,1.243238926,7.12547529025576,222,0.5,1243.238926,"222",1,"0.5","1"
222,NA,"negative","fearful",NA,NA,NA,NA,0,6,6,24,NA,NA,NA,NA,"down",0,1.343000889,"2016_Oct_04_1730",59.97397598,"heterogeneity160929b",1,222,7,-0.325,1.343000889,7.20266185847388,222,-0.5,1343.000889,"222",-1,"-0.5","-1"
222,NA,"positive","artistic",NA,NA,NA,NA,0,7,7,9,NA,NA,NA,NA,"down",0,1.225975037,"2016_Oct_04_1730",59.97397598,"heterogeneity160929b",1,222,8,-0.3,1.225975037,7.11149175495118,222,0.5,1225.975037,"222",1,"0.5","1"
222,NA,"negative","cynical",NA,NA,NA,NA,0,8,8,37,NA,NA,NA,NA,"down",0,1.475699186,"2016_Oct_04_1730",59.97397598,"heterogeneity160929b",1,222,9,-0.275,1.475699186,7.29688718086662,222,-0.5,1475.699186,"222",-1,"-0.5","-1"
222,NA,"positive","courageous",NA,NA,NA,NA,0,9,9,15,NA,NA,NA,NA,"up",0,0.724872112,"2016_Oct_04_1730",59.97397598,"heterogeneity160929b",1,222,10,-0.25,0.724872112,6.58599524205347,222,0.5,724.872112,"222",1,"0.5","1"
222,NA,"negative","inhibited",NA,NA,NA,NA,0,10,10,25,NA,NA,NA,NA,"down",0,1.475407839,"2016_Oct_04_1730",59.97397598,"heterogeneity160929b",1,222,11,-0.225,1.475407839,7.29668973157151,222,-0.5,1475.407839,"222",-1,"-0.5","-1"
222,NA,"negative","worrying",NA,NA,NA,NA,0,11,11,32,NA,NA,NA,NA,"up",0,1.092560053,"2016_Oct_04_1730",59.97397598,"heterogeneity160929b",1,222,12,-0.2,1.092560053,6.99627889388009,222,-0.5,1092.560053,"222",-1,"-0.5","-1"
222,NA,"negative","tense",NA,NA,NA,NA,0,12,12,26,NA,NA,NA,NA,"up",0,1.776128054,"2016_Oct_04_1730",59.97397598,"heterogeneity160929b",1,222,13,-0.175,1.776128054,7.48219102343033,222,-0.5,1776.128054,"222",-1,"-0.5","-1"
222,NA,"negative","stubborn",NA,NA,NA,NA,0,13,13,39,NA,NA,NA,NA,"up",0,1.37562108,"2016_Oct_04_1730",59.97397598,"heterogeneity160929b",1,222,14,-0.15,1.37562108,7.22666060266285,222,-0.5,1375.62108,"222",-1,"-0.5","-1"
